workerid,proliferate.condition,Word,content,exp,object,response,rt,slide_number_in_experiment,speakerGender,speakerName,utterance,catch_trials,subject_information.age,subject_information.asses,subject_information.comments,subject_information.education,subject_information.enjoyment,subject_information.gender,subject_information.language,system.Browser,system.OS,system.screenH,system.screenW,time_in_minutes,error
309,experiment,,,,,5bf3761862e1bc0001f15cb2,0,1,,,,[],38,Yes,,0,2,Male,English,Chrome,Windows,1080,1920,4.671,
309,experiment,,,,Elizabeth,Elizabeth,0,2,,,bot_check,[],38,Yes,,0,2,Male,English,Chrome,Windows,1080,1920,4.671,
309,experiment,squeal,Lucas bought new shoes,stim,,yes,10625,9,M,David,Did Anna squeal that Lucas bought new shoes?,[],38,Yes,,0,2,Male,English,Chrome,Windows,1080,1920,4.671,
309,experiment,disgust,Frank got a cat,stim,,yes,6648,10,M,Robert,Is Regina disgusted that Frank got a cat?,[],38,Yes,,0,2,Male,English,Chrome,Windows,1080,1920,4.671,
309,experiment,resent,Cole celebrated his friend's birthday,stim,,yes,8066,11,F,Carol,Did Nicole resent that Cole celebrated his friend's birthday?,[],38,Yes,,0,2,Male,English,Chrome,Windows,1080,1920,4.671,
309,experiment,suppose,Grace visited her sister,stim,,no,6816,12,F,Lisa,Did Bobby suppose that Grace visited her sister?,[],38,Yes,,0,2,Male,English,Chrome,Windows,1080,1920,4.671,
309,experiment,enjoy,Molly attended a conference last week,stim,,yes,7673,13,F,Betty,Did Patrick enjoy that Molly attended a conference last week?,[],38,Yes,,0,2,Male,English,Chrome,Windows,1080,1920,4.671,
309,experiment,charm,Mary planted a tree,stim,,yes,5873,14,M,Paul,Is Dennis charmed that Mary planted a tree?,[],38,Yes,,0,2,Male,English,Chrome,Windows,1080,1920,4.671,
309,experiment,,Zack is coming to the meeting tomorrow,control,,no,2881,15,M,George,Is Zack coming to the meeting tomorrow?,[],38,Yes,,0,2,Male,English,Chrome,Windows,1080,1920,4.671,
309,experiment,anticipate,Hannah called her parents,stim,,yes,6160,16,F,Jennifer,Did Kevin anticipate that Hannah called her parents?,[],38,Yes,,0,2,Male,English,Chrome,Windows,1080,1920,4.671,
309,experiment,whine,Courtney woke up early yesterday,stim,,yes,4553,17,F,Donna,Did Eli whine that Courtney woke up early yesterday?,[],38,Yes,,0,2,Male,English,Chrome,Windows,1080,1920,4.671,
309,experiment,excite,Emma studied on Saturday morning,stim,,yes,7617,18,M,Thomas,Is Colby excited that Emma studied on Saturday morning?,[],38,Yes,,0,2,Male,English,Chrome,Windows,1080,1920,4.671,
309,experiment,love,Charley spilled the wine,stim,,yes,4457,19,F,Ashley,Did Shirley love that Charley spilled the wine?,[],38,Yes,,0,2,Male,English,Chrome,Windows,1080,1920,4.671,
309,experiment,shock,Louis went swimming,stim,,yes,9169,20,M,Kenneth,Is Ruth shocked that Louis went swimming?,[],38,Yes,,0,2,Male,English,Chrome,Windows,1080,1920,4.671,
309,experiment,dictate,Josie went on vacation to France,stim,,yes,7409,21,M,Matthew,Did Jerry dictate that Josie went on vacation to France?,[],38,Yes,,0,2,Male,English,Chrome,Windows,1080,1920,4.671,
309,experiment,trouble,Dylan argued with his parents,stim,,yes,4945,22,F,Margaret,Is Kaitlin troubled that Dylan argued with his parents?,[],38,Yes,,0,2,Male,English,Chrome,Windows,1080,1920,4.671,
309,experiment,,Hendrick's car was expensive,control,,yes,2568,23,F,Kimberly,Was Hendrick's car expensive?,[],38,Yes,,0,2,Male,English,Chrome,Windows,1080,1920,4.671,
309,experiment,pray,Valerie booked the venue,stim,,no,6513,24,M,Steven,Did Brian pray that Valerie booked the venue?,[],38,Yes,,0,2,Male,English,Chrome,Windows,1080,1920,4.671,
309,experiment,joke,Allen went to the museum,stim,,no,4185,25,M,William,Did Laura joke that Allen went to the museum?,[],38,Yes,,0,2,Male,English,Chrome,Windows,1080,1920,4.671,
309,experiment,thrill,Jayden rented a car,stim,,yes,3128,26,M,Christopher,Is Heather thrilled that Jayden rented a car?,[],38,Yes,,0,2,Male,English,Chrome,Windows,1080,1920,4.671,
309,experiment,aggravate,Fred missed the train,stim,,yes,3184,27,F,Susan,Is Cynthia aggravated that Fred missed the train?,[],38,Yes,,0,2,Male,English,Chrome,Windows,1080,1920,4.671,
309,experiment,scream,Danny ate the last cupcake,stim,,no,5288,28,F,Karen,Did Sharon scream that Danny ate the last cupcake?,[],38,Yes,,0,2,Male,English,Chrome,Windows,1080,1920,4.671,
309,experiment,simulate,Emily bought a car yesterday,stim,,no,6272,29,F,Elizabeth,Did Justin simulate that Emily bought a car yesterday?,[],38,Yes,,0,2,Male,English,Chrome,Windows,1080,1920,4.671,
309,experiment,verify,Josh learned to ride a bike yesterday,stim,,no,4937,30,F,Michelle,Did Kathleen verify that Josh learned to ride a bike yesterday?,[],38,Yes,,0,2,Male,English,Chrome,Windows,1080,1920,4.671,
309,experiment,embarrass,Isabella ate a steak on Sunday,stim,,yes,4657,31,M,James,Is Alan embarrassed that Isabella ate a steak on Sunday?,[],38,Yes,,0,2,Male,English,Chrome,Windows,1080,1920,4.671,
309,experiment,,Mary's aunt is sick,control,,no,2128,32,F,Jessica,Is Mary's aunt sick?,[],38,Yes,,0,2,Male,English,Chrome,Windows,1080,1920,4.671,
309,experiment,,Madison had a baby,control,,no,2288,33,F,Linda,Did Madison have a baby?,[],38,Yes,,0,2,Male,English,Chrome,Windows,1080,1920,4.671,
309,experiment,,Todd played football in high school,control,,no,3064,34,M,Richard,Did Todd play football in high school?,[],38,Yes,,0,2,Male,English,Chrome,Windows,1080,1920,4.671,
309,experiment,write,Connor fell from a tree,stim,,no,3393,35,M,Logan,Did Rebecca write that Connor fell from a tree?,[],38,Yes,,0,2,Male,English,Chrome,Windows,1080,1920,4.671,
309,experiment,alarm,Jon went out for dinner,stim,,yes,8553,36,M,Mark,Is Catherine alarmed that Jon went out for dinner?,[],38,Yes,,0,2,Male,English,Chrome,Windows,1080,1920,4.671,
309,experiment,ignore,Sophia got a tattoo,stim,,yes,5665,37,F,Nancy,Did Francisco ignore that Sophia got a tattoo?,[],38,Yes,,0,2,Male,English,Chrome,Windows,1080,1920,4.671,
309,experiment,,Vanessa is good at math,control,,no,1856,38,F,Sarah,Is Vanessa good at math?,[],38,Yes,,0,2,Male,English,Chrome,Windows,1080,1920,4.671,
309,experiment,tweet,Audrey went to a party,stim,,no,4361,39,F,Sandra,Did Tim tweet that Audrey went to a party?,[],38,Yes,,0,2,Male,English,Chrome,Windows,1080,1920,4.671,
309,experiment,irritate,Julian cleaned his room,stim,,yes,7289,40,F,Helen,Is Amy irritated that Julian cleaned his room?,[],38,Yes,,0,2,Male,English,Chrome,Windows,1080,1920,4.671,
309,experiment,feel,Zoe calculated the tip,stim,,no,5769,41,F,Dorothy,Did Scott feel that Zoe calculated the tip?,[],38,Yes,,0,2,Male,English,Chrome,Windows,1080,1920,4.671,
329,experiment,,,,,5c4d5328889752000156a11d,0,1,,,,[],49,Yes,"Most of the items seemed to have clear answers, but a few seemed somewhat ambiguous. I wonder if this is what you think.",3,1,Male,English,Chrome,Linux,768,1366,6.079366666666667,
329,experiment,,,,Margaret,Margaret,0,2,,,bot_check,[],49,Yes,"Most of the items seemed to have clear answers, but a few seemed somewhat ambiguous. I wonder if this is what you think.",3,1,Male,English,Chrome,Linux,768,1366,6.079366666666667,
329,experiment,envision,Grace visited her sister,stim,,no,13928,9,M,Steven,Did Scott envision that Grace visited her sister?,[],49,Yes,"Most of the items seemed to have clear answers, but a few seemed somewhat ambiguous. I wonder if this is what you think.",3,1,Male,English,Chrome,Linux,768,1366,6.079366666666667,
329,experiment,enjoy,Cole celebrated his friend's birthday,stim,,yes,11882,10,M,Kenneth,Did Amy enjoy that Cole celebrated his friend's birthday?,[],49,Yes,"Most of the items seemed to have clear answers, but a few seemed somewhat ambiguous. I wonder if this is what you think.",3,1,Male,English,Chrome,Linux,768,1366,6.079366666666667,
329,experiment,dictate,Molly attended a conference last week,stim,,no,7504,11,M,George,Did Tim dictate that Molly attended a conference last week?,[],49,Yes,"Most of the items seemed to have clear answers, but a few seemed somewhat ambiguous. I wonder if this is what you think.",3,1,Male,English,Chrome,Linux,768,1366,6.079366666666667,
329,experiment,aggravate,Mary planted a tree,stim,,yes,7264,12,F,Michelle,Is Patrick aggravated that Mary planted a tree?,[],49,Yes,"Most of the items seemed to have clear answers, but a few seemed somewhat ambiguous. I wonder if this is what you think.",3,1,Male,English,Chrome,Linux,768,1366,6.079366666666667,
329,experiment,retract,Emily bought a car yesterday,stim,,no,5767,13,M,James,Did Ben retract that Emily bought a car yesterday?,[],49,Yes,"Most of the items seemed to have clear answers, but a few seemed somewhat ambiguous. I wonder if this is what you think.",3,1,Male,English,Chrome,Linux,768,1366,6.079366666666667,
329,experiment,murmur,Julian cleaned his room,stim,,no,4330,14,F,Margaret,Did Shirley murmur that Julian cleaned his room?,[],49,Yes,"Most of the items seemed to have clear answers, but a few seemed somewhat ambiguous. I wonder if this is what you think.",3,1,Male,English,Chrome,Linux,768,1366,6.079366666666667,
329,experiment,insult,Danny ate the last cupcake,stim,,yes,5167,15,F,Sandra,Is Heather insulted that Danny ate the last cupcake?,[],49,Yes,"Most of the items seemed to have clear answers, but a few seemed somewhat ambiguous. I wonder if this is what you think.",3,1,Male,English,Chrome,Linux,768,1366,6.079366666666667,
329,experiment,thrill,Zoe calculated the tip,stim,,yes,6311,16,M,Thomas,Is Jerry thrilled that Zoe calculated the tip?,[],49,Yes,"Most of the items seemed to have clear answers, but a few seemed somewhat ambiguous. I wonder if this is what you think.",3,1,Male,English,Chrome,Linux,768,1366,6.079366666666667,
329,experiment,irritate,Hannah called her parents,stim,,yes,4432,17,F,Jennifer,Is Kevin irritated that Hannah called her parents?,[],49,Yes,"Most of the items seemed to have clear answers, but a few seemed somewhat ambiguous. I wonder if this is what you think.",3,1,Male,English,Chrome,Linux,768,1366,6.079366666666667,
329,experiment,testify,Frank got a cat,stim,,no,3010,18,F,Donna,Did Cynthia testify that Frank got a cat?,[],49,Yes,"Most of the items seemed to have clear answers, but a few seemed somewhat ambiguous. I wonder if this is what you think.",3,1,Male,English,Chrome,Linux,768,1366,6.079366666666667,
329,experiment,weep,Natasha got a promotion,stim,,yes,3972,19,F,Helen,Did Justin weep that Natasha got a promotion?,[],49,Yes,"Most of the items seemed to have clear answers, but a few seemed somewhat ambiguous. I wonder if this is what you think.",3,1,Male,English,Chrome,Linux,768,1366,6.079366666666667,
329,experiment,offend,Louis went swimming,stim,,yes,3860,20,F,Ashley,Is Catherine offended that Louis went swimming?,[],49,Yes,"Most of the items seemed to have clear answers, but a few seemed somewhat ambiguous. I wonder if this is what you think.",3,1,Male,English,Chrome,Linux,768,1366,6.079366666666667,
329,experiment,gossip,Josie went on vacation to France,stim,,no,3622,21,F,Elizabeth,Did Dennis gossip that Josie went on vacation to France?,[],49,Yes,"Most of the items seemed to have clear answers, but a few seemed somewhat ambiguous. I wonder if this is what you think.",3,1,Male,English,Chrome,Linux,768,1366,6.079366666666667,
329,experiment,,Madison had a baby,control,,no,2922,22,M,David,Did Madison have a baby?,[],49,Yes,"Most of the items seemed to have clear answers, but a few seemed somewhat ambiguous. I wonder if this is what you think.",3,1,Male,English,Chrome,Linux,768,1366,6.079366666666667,
329,experiment,alarm,Tony had a drink last night,stim,,yes,7225,23,F,Sarah,Is Rebecca alarmed that Tony had a drink last night?,[],49,Yes,"Most of the items seemed to have clear answers, but a few seemed somewhat ambiguous. I wonder if this is what you think.",3,1,Male,English,Chrome,Linux,768,1366,6.079366666666667,
329,experiment,squeal,Danielle painted her room,stim,,no,2364,24,F,Linda,Did Brian squeal that Danielle painted her room?,[],49,Yes,"Most of the items seemed to have clear answers, but a few seemed somewhat ambiguous. I wonder if this is what you think.",3,1,Male,English,Chrome,Linux,768,1366,6.079366666666667,
329,experiment,,Mary's aunt is sick,control,,no,1865,25,F,Lisa,Is Mary's aunt sick?,[],49,Yes,"Most of the items seemed to have clear answers, but a few seemed somewhat ambiguous. I wonder if this is what you think.",3,1,Male,English,Chrome,Linux,768,1366,6.079366666666667,
329,experiment,fantasize,Sophia got a tattoo,stim,,no,2870,26,M,Mark,Did Manuel fantasize that Sophia got a tattoo?,[],49,Yes,"Most of the items seemed to have clear answers, but a few seemed somewhat ambiguous. I wonder if this is what you think.",3,1,Male,English,Chrome,Linux,768,1366,6.079366666666667,
329,experiment,surprise,Charley spilled the wine,stim,,yes,2323,27,F,Dorothy,Is Melissa surprised that Charley spilled the wine?,[],49,Yes,"Most of the items seemed to have clear answers, but a few seemed somewhat ambiguous. I wonder if this is what you think.",3,1,Male,English,Chrome,Linux,768,1366,6.079366666666667,
329,experiment,expose,Allen went to the museum,stim,,yes,6452,28,F,Betty,Did Regina expose that Allen went to the museum?,[],49,Yes,"Most of the items seemed to have clear answers, but a few seemed somewhat ambiguous. I wonder if this is what you think.",3,1,Male,English,Chrome,Linux,768,1366,6.079366666666667,
329,experiment,,Vanessa is good at math,control,,no,1513,29,M,William,Is Vanessa good at math?,[],49,Yes,"Most of the items seemed to have clear answers, but a few seemed somewhat ambiguous. I wonder if this is what you think.",3,1,Male,English,Chrome,Linux,768,1366,6.079366666666667,
329,experiment,argue,Jon went out for dinner,stim,,no,1774,30,M,Logan,Did Kaitlin argue that Jon went out for dinner?,[],49,Yes,"Most of the items seemed to have clear answers, but a few seemed somewhat ambiguous. I wonder if this is what you think.",3,1,Male,English,Chrome,Linux,768,1366,6.079366666666667,
329,experiment,,Zack is coming to the meeting tomorrow,control,,no,3474,31,F,Karen,Is Zack coming to the meeting tomorrow?,[],49,Yes,"Most of the items seemed to have clear answers, but a few seemed somewhat ambiguous. I wonder if this is what you think.",3,1,Male,English,Chrome,Linux,768,1366,6.079366666666667,
329,experiment,ignore,Jayden rented a car,stim,,yes,9768,32,F,Carol,Did Brenda ignore that Jayden rented a car?,[],49,Yes,"Most of the items seemed to have clear answers, but a few seemed somewhat ambiguous. I wonder if this is what you think.",3,1,Male,English,Chrome,Linux,768,1366,6.079366666666667,
329,experiment,bet,Lucas bought new shoes,stim,,no,4430,33,F,Susan,Did Stephanie bet that Lucas bought new shoes?,[],49,Yes,"Most of the items seemed to have clear answers, but a few seemed somewhat ambiguous. I wonder if this is what you think.",3,1,Male,English,Chrome,Linux,768,1366,6.079366666666667,
329,experiment,verify,Emilia looked after the kids,stim,,no,4865,34,F,Jessica,Did Andrew verify that Emilia looked after the kids?,[],49,Yes,"Most of the items seemed to have clear answers, but a few seemed somewhat ambiguous. I wonder if this is what you think.",3,1,Male,English,Chrome,Linux,768,1366,6.079366666666667,
329,experiment,,Todd played football in high school,control,,no,1732,35,M,Christopher,Did Todd play football in high school?,[],49,Yes,"Most of the items seemed to have clear answers, but a few seemed somewhat ambiguous. I wonder if this is what you think.",3,1,Male,English,Chrome,Linux,768,1366,6.079366666666667,
329,experiment,,Hendrick's car was expensive,control,,no,1523,36,M,Paul,Was Hendrick's car expensive?,[],49,Yes,"Most of the items seemed to have clear answers, but a few seemed somewhat ambiguous. I wonder if this is what you think.",3,1,Male,English,Chrome,Linux,768,1366,6.079366666666667,
329,experiment,trouble,Mia drank 2 cocktails last night,stim,,yes,2690,37,F,Nancy,Is Alan troubled that Mia drank 2 cocktails last night?,[],49,Yes,"Most of the items seemed to have clear answers, but a few seemed somewhat ambiguous. I wonder if this is what you think.",3,1,Male,English,Chrome,Linux,768,1366,6.079366666666667,
329,experiment,facinate,Audrey went to a party,stim,,yes,3670,38,M,Robert,Is Colby fascinated that Audrey went to a party?,[],49,Yes,"Most of the items seemed to have clear answers, but a few seemed somewhat ambiguous. I wonder if this is what you think.",3,1,Male,English,Chrome,Linux,768,1366,6.079366666666667,
329,experiment,amuse,Courtney woke up early yesterday,stim,,yes,16409,39,M,Richard,Is Eli amused that Courtney woke up early yesterday?,[],49,Yes,"Most of the items seemed to have clear answers, but a few seemed somewhat ambiguous. I wonder if this is what you think.",3,1,Male,English,Chrome,Linux,768,1366,6.079366666666667,
329,experiment,think,Fred missed the train,stim,,no,2714,40,M,Matthew,Did Anna think that Fred missed the train?,[],49,Yes,"Most of the items seemed to have clear answers, but a few seemed somewhat ambiguous. I wonder if this is what you think.",3,1,Male,English,Chrome,Linux,768,1366,6.079366666666667,
329,experiment,pray,Jason made a cake,stim,,no,3190,41,F,Kimberly,Did Nicole pray that Jason made a cake?,[],49,Yes,"Most of the items seemed to have clear answers, but a few seemed somewhat ambiguous. I wonder if this is what you think.",3,1,Male,English,Chrome,Linux,768,1366,6.079366666666667,
246,experiment,,,,,5a7dfc2c5292b8000122bd74,0,1,,,,[],35,Yes,,3,1,Male,English,Chrome,Windows,1200,1920,33.544783333333335,
246,experiment,,,,Linda,Linda,0,2,,,bot_check,[],35,Yes,,3,1,Male,English,Chrome,Windows,1200,1920,33.544783333333335,
246,experiment,require,Natasha got a promotion,stim,,yes,9933,9,F,Linda,Did Tim require that Natasha got a promotion?,[],35,Yes,,3,1,Male,English,Chrome,Windows,1200,1920,33.544783333333335,
246,experiment,enjoy,Jason made a cake,stim,,yes,3763,10,F,Donna,Did Kaitlin enjoy that Jason made a cake?,[],35,Yes,,3,1,Male,English,Chrome,Windows,1200,1920,33.544783333333335,
246,experiment,alarm,Courtney woke up early yesterday,stim,,yes,5622,11,F,Lisa,Is Alan alarmed that Courtney woke up early yesterday?,[],35,Yes,,3,1,Male,English,Chrome,Windows,1200,1920,33.544783333333335,
246,experiment,suppose,Hannah called her parents,stim,,yes,10462,12,M,Mark,Did Francisco suppose that Hannah called her parents?,[],35,Yes,,3,1,Male,English,Chrome,Windows,1200,1920,33.544783333333335,
246,experiment,facinate,Isabella ate a steak on Sunday,stim,,yes,5128,13,F,Elizabeth,Is Ben fascinated that Isabella ate a steak on Sunday?,[],35,Yes,,3,1,Male,English,Chrome,Windows,1200,1920,33.544783333333335,
246,experiment,dictate,Emilia looked after the kids,stim,,yes,3662,14,M,Paul,Did Manuel dictate that Emilia looked after the kids?,[],35,Yes,,3,1,Male,English,Chrome,Windows,1200,1920,33.544783333333335,
246,experiment,trouble,Josie went on vacation to France,stim,,yes,3352,15,M,James,Is Andrew troubled that Josie went on vacation to France?,[],35,Yes,,3,1,Male,English,Chrome,Windows,1200,1920,33.544783333333335,
246,experiment,charm,Jon went out for dinner,stim,,yes,4528,16,M,Robert,Is Ruth charmed that Jon went out for dinner?,[],35,Yes,,3,1,Male,English,Chrome,Windows,1200,1920,33.544783333333335,
246,experiment,offend,Tony had a drink last night,stim,,yes,4458,17,M,Kenneth,Is Sharon offended that Tony had a drink last night?,[],35,Yes,,3,1,Male,English,Chrome,Windows,1200,1920,33.544783333333335,
246,experiment,,Todd played football in high school,control,,no,2608,18,F,Sandra,Did Todd play football in high school?,[],35,Yes,,3,1,Male,English,Chrome,Windows,1200,1920,33.544783333333335,
246,experiment,scream,Danny ate the last cupcake,stim,,yes,3926,19,F,Sarah,Did Laura scream that Danny ate the last cupcake?,[],35,Yes,,3,1,Male,English,Chrome,Windows,1200,1920,33.544783333333335,
246,experiment,resent,Allen went to the museum,stim,,yes,4456,20,F,Carol,Did Catherine resent that Allen went to the museum?,[],35,Yes,,3,1,Male,English,Chrome,Windows,1200,1920,33.544783333333335,
246,experiment,,Madison had a baby,control,,no,2384,21,M,David,Did Madison have a baby?,[],35,Yes,,3,1,Male,English,Chrome,Windows,1200,1920,33.544783333333335,
246,experiment,surprise,Josh learned to ride a bike yesterday,stim,,yes,4043,22,M,Logan,Is Melissa surprised that Josh learned to ride a bike yesterday?,[],35,Yes,,3,1,Male,English,Chrome,Windows,1200,1920,33.544783333333335,
246,experiment,simulate,Molly attended a conference last week,stim,,no,9078,23,F,Jennifer,Did Patrick simulate that Molly attended a conference last week?,[],35,Yes,,3,1,Male,English,Chrome,Windows,1200,1920,33.544783333333335,
246,experiment,aggravate,Connor fell from a tree,stim,,yes,2896,24,M,Matthew,Is Rebecca aggravated that Connor fell from a tree?,[],35,Yes,,3,1,Male,English,Chrome,Windows,1200,1920,33.544783333333335,
246,experiment,,Zack is coming to the meeting tomorrow,control,,no,2296,25,F,Ashley,Is Zack coming to the meeting tomorrow?,[],35,Yes,,3,1,Male,English,Chrome,Windows,1200,1920,33.544783333333335,
246,experiment,,Hendrick's car was expensive,control,,no,3758,26,F,Michelle,Was Hendrick's car expensive?,[],35,Yes,,3,1,Male,English,Chrome,Windows,1200,1920,33.544783333333335,
246,experiment,anticipate,Lucas bought new shoes,stim,,yes,6576,27,M,Thomas,Did Stephanie anticipate that Lucas bought new shoes?,[],35,Yes,,3,1,Male,English,Chrome,Windows,1200,1920,33.544783333333335,
246,experiment,shout,Dylan argued with his parents,stim,,no,5110,28,F,Kimberly,Did Kathleen shout that Dylan argued with his parents?,[],35,Yes,,3,1,Male,English,Chrome,Windows,1200,1920,33.544783333333335,
246,experiment,squeal,Jackson ran 10 miles,stim,,no,5736,29,M,Richard,Did Cynthia squeal that Jackson ran 10 miles?,[],35,Yes,,3,1,Male,English,Chrome,Windows,1200,1920,33.544783333333335,
246,experiment,joke,Sophia got a tattoo,stim,,no,3069,30,M,George,Did Dennis joke that Sophia got a tattoo?,[],35,Yes,,3,1,Male,English,Chrome,Windows,1200,1920,33.544783333333335,
246,experiment,write,Louis went swimming,stim,,no,2143,31,F,Jessica,Did Anna write that Louis went swimming?,[],35,Yes,,3,1,Male,English,Chrome,Windows,1200,1920,33.544783333333335,
246,experiment,feel,Mia drank 2 cocktails last night,stim,,no,4055,32,F,Dorothy,Did Kevin feel that Mia drank 2 cocktails last night?,[],35,Yes,,3,1,Male,English,Chrome,Windows,1200,1920,33.544783333333335,
246,experiment,distress,Grace visited her sister,stim,,yes,5229,33,F,Susan,Is Noah distressed that Grace visited her sister?,[],35,Yes,,3,1,Male,English,Chrome,Windows,1200,1920,33.544783333333335,
246,experiment,disgust,Emily bought a car yesterday,stim,,yes,3151,34,M,William,Is Colby disgusted that Emily bought a car yesterday?,[],35,Yes,,3,1,Male,English,Chrome,Windows,1200,1920,33.544783333333335,
246,experiment,cringe,Frank got a cat,stim,,yes,2831,35,F,Margaret,Did Nicole cringe that Frank got a cat?,[],35,Yes,,3,1,Male,English,Chrome,Windows,1200,1920,33.544783333333335,
246,experiment,love,Audrey went to a party,stim,,yes,2573,36,F,Karen,Did Justin love that Audrey went to a party?,[],35,Yes,,3,1,Male,English,Chrome,Windows,1200,1920,33.544783333333335,
246,experiment,,Mary's aunt is sick,control,,no,2311,37,M,Steven,Is Mary's aunt sick?,[],35,Yes,,3,1,Male,English,Chrome,Windows,1200,1920,33.544783333333335,
246,experiment,weep,Julian cleaned his room,stim,,yes,4832,38,F,Nancy,Did Amy weep that Julian cleaned his room?,[],35,Yes,,3,1,Male,English,Chrome,Windows,1200,1920,33.544783333333335,
246,experiment,,Vanessa is good at math,control,,no,1717,39,F,Helen,Is Vanessa good at math?,[],35,Yes,,3,1,Male,English,Chrome,Windows,1200,1920,33.544783333333335,
246,experiment,tweet,Olivia left her job,stim,,no,4239,40,M,Christopher,Did Ray tweet that Olivia left her job?,[],35,Yes,,3,1,Male,English,Chrome,Windows,1200,1920,33.544783333333335,
246,experiment,promise,Zoe calculated the tip,stim,,no,6862,41,F,Betty,Did Eli promise that Zoe calculated the tip?,[],35,Yes,,3,1,Male,English,Chrome,Windows,1200,1920,33.544783333333335,
320,experiment,,,,,5accdfaebf2ab00001aa8215,0,1,,,,[],67,Yes,,3,2,Male,English,Chrome,Linux,720,1280,7.629216666666666,
320,experiment,,,,Jennifer,Jennifer,0,2,,,bot_check,[],67,Yes,,3,2,Male,English,Chrome,Linux,720,1280,7.629216666666666,
320,experiment,,Vanessa is good at math,control,,no,8699,9,M,Matthew,Is Vanessa good at math?,[],67,Yes,,3,2,Male,English,Chrome,Linux,720,1280,7.629216666666666,
320,experiment,cringe,Lucas bought new shoes,stim,,yes,12230,10,F,Sarah,Did Anna cringe that Lucas bought new shoes?,[],67,Yes,,3,2,Male,English,Chrome,Linux,720,1280,7.629216666666666,
320,experiment,argue,Natasha got a promotion,stim,,yes,14177,11,M,Paul,Did Colby argue that Natasha got a promotion?,[],67,Yes,,3,2,Male,English,Chrome,Linux,720,1280,7.629216666666666,
320,experiment,shock,Emma studied on Saturday morning,stim,,yes,9956,12,F,Jennifer,Is Bobby shocked that Emma studied on Saturday morning?,[],67,Yes,,3,2,Male,English,Chrome,Linux,720,1280,7.629216666666666,
320,experiment,,Hendrick's car was expensive,control,,no,5006,13,F,Ashley,Was Hendrick's car expensive?,[],67,Yes,,3,2,Male,English,Chrome,Linux,720,1280,7.629216666666666,
320,experiment,require,Courtney woke up early yesterday,stim,,yes,13933,14,M,William,Did Eli require that Courtney woke up early yesterday?,[],67,Yes,,3,2,Male,English,Chrome,Linux,720,1280,7.629216666666666,
320,experiment,alarm,Tony had a drink last night,stim,,yes,9688,15,M,Richard,Is Melissa alarmed that Tony had a drink last night?,[],67,Yes,,3,2,Male,English,Chrome,Linux,720,1280,7.629216666666666,
320,experiment,enjoy,Dylan argued with his parents,stim,,yes,6860,16,M,James,Did Rebecca enjoy that Dylan argued with his parents?,[],67,Yes,,3,2,Male,English,Chrome,Linux,720,1280,7.629216666666666,
320,experiment,thrill,Mia drank 2 cocktails last night,stim,,yes,6210,17,M,Steven,Is Kevin thrilled that Mia drank 2 cocktails last night?,[],67,Yes,,3,2,Male,English,Chrome,Linux,720,1280,7.629216666666666,
320,experiment,feel,Fred missed the train,stim,,no,13175,18,F,Michelle,Did Catherine feel that Fred missed the train?,[],67,Yes,,3,2,Male,English,Chrome,Linux,720,1280,7.629216666666666,
320,experiment,facinate,Danny ate the last cupcake,stim,,yes,7443,19,F,Sandra,Is Nicole fascinated that Danny ate the last cupcake?,[],67,Yes,,3,2,Male,English,Chrome,Linux,720,1280,7.629216666666666,
320,experiment,squeal,Sophia got a tattoo,stim,,yes,4507,20,F,Helen,Did Francisco squeal that Sophia got a tattoo?,[],67,Yes,,3,2,Male,English,Chrome,Linux,720,1280,7.629216666666666,
320,experiment,elaborate,Jon went out for dinner,stim,,yes,5643,21,M,Thomas,Did Cynthia elaborate that Jon went out for dinner?,[],67,Yes,,3,2,Male,English,Chrome,Linux,720,1280,7.629216666666666,
320,experiment,whine,Isabella ate a steak on Sunday,stim,,yes,7290,22,F,Carol,Did Dennis whine that Isabella ate a steak on Sunday?,[],67,Yes,,3,2,Male,English,Chrome,Linux,720,1280,7.629216666666666,
320,experiment,tweet,Owen shoveled snow last winter,stim,,no,7104,23,F,Susan,Did Laura tweet that Owen shoveled snow last winter?,[],67,Yes,,3,2,Male,English,Chrome,Linux,720,1280,7.629216666666666,
320,experiment,embarrass,Jason made a cake,stim,,yes,3981,24,F,Karen,Is Sharon embarrassed that Jason made a cake?,[],67,Yes,,3,2,Male,English,Chrome,Linux,720,1280,7.629216666666666,
320,experiment,,Todd played football in high school,control,,no,7201,25,F,Margaret,Did Todd play football in high school?,[],67,Yes,,3,2,Male,English,Chrome,Linux,720,1280,7.629216666666666,
320,experiment,,Madison had a baby,control,,no,4559,26,F,Nancy,Did Madison have a baby?,[],67,Yes,,3,2,Male,English,Chrome,Linux,720,1280,7.629216666666666,
320,experiment,excite,Danielle painted her room,stim,,yes,4706,27,F,Elizabeth,Is Brian excited that Danielle painted her room?,[],67,Yes,,3,2,Male,English,Chrome,Linux,720,1280,7.629216666666666,
320,experiment,retract,Louis went swimming,stim,,no,10902,28,F,Dorothy,Did Kathleen retract that Louis went swimming?,[],67,Yes,,3,2,Male,English,Chrome,Linux,720,1280,7.629216666666666,
320,experiment,weep,Valerie booked the venue,stim,,yes,6160,29,F,Jessica,Did Noah weep that Valerie booked the venue?,[],67,Yes,,3,2,Male,English,Chrome,Linux,720,1280,7.629216666666666,
320,experiment,expose,Jayden rented a car,stim,,yes,3723,30,F,Betty,Did Amy expose that Jayden rented a car?,[],67,Yes,,3,2,Male,English,Chrome,Linux,720,1280,7.629216666666666,
320,experiment,suppose,Cole celebrated his friend's birthday,stim,,no,8522,31,F,Linda,Did Ruth suppose that Cole celebrated his friend's birthday?,[],67,Yes,,3,2,Male,English,Chrome,Linux,720,1280,7.629216666666666,
320,experiment,write,Frank got a cat,stim,,no,8153,32,M,Christopher,Did Shirley write that Frank got a cat?,[],67,Yes,,3,2,Male,English,Chrome,Linux,720,1280,7.629216666666666,
320,experiment,promise,Connor fell from a tree,stim,,no,10024,33,M,George,Did Amanda promise that Connor fell from a tree?,[],67,Yes,,3,2,Male,English,Chrome,Linux,720,1280,7.629216666666666,
320,experiment,trouble,Olivia left her job,stim,,yes,5651,34,F,Kimberly,Is Manuel troubled that Olivia left her job?,[],67,Yes,,3,2,Male,English,Chrome,Linux,720,1280,7.629216666666666,
320,experiment,distress,Josie went on vacation to France,stim,,yes,6616,35,M,Kenneth,Is Justin distressed that Josie went on vacation to France?,[],67,Yes,,3,2,Male,English,Chrome,Linux,720,1280,7.629216666666666,
320,experiment,charm,Josh learned to ride a bike yesterday,stim,,yes,3954,36,F,Donna,Is Regina charmed that Josh learned to ride a bike yesterday?,[],67,Yes,,3,2,Male,English,Chrome,Linux,720,1280,7.629216666666666,
320,experiment,offend,Zoe calculated the tip,stim,,yes,4612,37,M,Logan,Is Tim offended that Zoe calculated the tip?,[],67,Yes,,3,2,Male,English,Chrome,Linux,720,1280,7.629216666666666,
320,experiment,pain,Jackson ran 10 miles,stim,,yes,5682,38,M,Robert,Is Kaitlin pained that Jackson ran 10 miles?,[],67,Yes,,3,2,Male,English,Chrome,Linux,720,1280,7.629216666666666,
320,experiment,,Mary's aunt is sick,control,,no,3344,39,M,David,Is Mary's aunt sick?,[],67,Yes,,3,2,Male,English,Chrome,Linux,720,1280,7.629216666666666,
320,experiment,,Zack is coming to the meeting tomorrow,control,,no,3899,40,F,Lisa,Is Zack coming to the meeting tomorrow?,[],67,Yes,,3,2,Male,English,Chrome,Linux,720,1280,7.629216666666666,
320,experiment,express,Emily bought a car yesterday,stim,,no,6872,41,M,Mark,Did Ben express that Emily bought a car yesterday?,[],67,Yes,,3,2,Male,English,Chrome,Linux,720,1280,7.629216666666666,
258,experiment,,,,,5d522280598b86000132de0d,0,1,,,,[],58,Yes,,3,1,Female,English,Chrome,Windows,720,1280,4.322,
258,experiment,,,,Jennifer,Jennifer,0,2,,,bot_check,[],58,Yes,,3,1,Female,English,Chrome,Windows,720,1280,4.322,
258,experiment,alarm,Emilia looked after the kids,stim,,yes,5750,9,M,George,Is Noah alarmed that Emilia looked after the kids?,[],58,Yes,,3,1,Female,English,Chrome,Windows,720,1280,4.322,
258,experiment,gossip,Emma studied on Saturday morning,stim,,yes,8371,10,M,Robert,Did Eli gossip that Emma studied on Saturday morning?,[],58,Yes,,3,1,Female,English,Chrome,Windows,720,1280,4.322,
258,experiment,shout,Courtney woke up early yesterday,stim,,no,7919,11,F,Margaret,Did Kevin shout that Courtney woke up early yesterday?,[],58,Yes,,3,1,Female,English,Chrome,Windows,720,1280,4.322,
258,experiment,shock,Molly attended a conference last week,stim,,yes,6857,12,F,Helen,Is Bobby shocked that Molly attended a conference last week?,[],58,Yes,,3,1,Female,English,Chrome,Windows,720,1280,4.322,
258,experiment,irritate,Lucas bought new shoes,stim,,yes,10713,13,M,Thomas,Is Laura irritated that Lucas bought new shoes?,[],58,Yes,,3,1,Female,English,Chrome,Windows,720,1280,4.322,
258,experiment,argue,Allen went to the museum,stim,,yes,5816,14,F,Jennifer,Did Regina argue that Allen went to the museum?,[],58,Yes,,3,1,Female,English,Chrome,Windows,720,1280,4.322,
258,experiment,joke,Louis went swimming,stim,,no,2881,15,F,Ashley,Did Ruth joke that Louis went swimming?,[],58,Yes,,3,1,Female,English,Chrome,Windows,720,1280,4.322,
258,experiment,scream,Zoe calculated the tip,stim,,no,4703,16,F,Sarah,Did Alan scream that Zoe calculated the tip?,[],58,Yes,,3,1,Female,English,Chrome,Windows,720,1280,4.322,
258,experiment,trouble,Jackson ran 10 miles,stim,,yes,4873,17,M,William,Is Amanda troubled that Jackson ran 10 miles?,[],58,Yes,,3,1,Female,English,Chrome,Windows,720,1280,4.322,
258,experiment,elaborate,Jayden rented a car,stim,,no,3472,18,F,Linda,Did Rebecca elaborate that Jayden rented a car?,[],58,Yes,,3,1,Female,English,Chrome,Windows,720,1280,4.322,
258,experiment,,Zack is coming to the meeting tomorrow,control,,no,2920,19,M,James,Is Zack coming to the meeting tomorrow?,[],58,Yes,,3,1,Female,English,Chrome,Windows,720,1280,4.322,
258,experiment,amuse,Isabella ate a steak on Sunday,stim,,yes,5567,20,F,Dorothy,Is Manuel amused that Isabella ate a steak on Sunday?,[],58,Yes,,3,1,Female,English,Chrome,Windows,720,1280,4.322,
258,experiment,,Todd played football in high school,control,,no,2416,21,F,Karen,Did Todd play football in high school?,[],58,Yes,,3,1,Female,English,Chrome,Windows,720,1280,4.322,
258,experiment,insult,Tony had a drink last night,stim,,yes,2616,22,F,Susan,Is Heather insulted that Tony had a drink last night?,[],58,Yes,,3,1,Female,English,Chrome,Windows,720,1280,4.322,
258,experiment,distress,Frank got a cat,stim,,yes,2591,23,F,Sandra,Is Kathleen distressed that Frank got a cat?,[],58,Yes,,3,1,Female,English,Chrome,Windows,720,1280,4.322,
258,experiment,murmur,Josie went on vacation to France,stim,,no,4560,24,F,Elizabeth,Did Tim murmur that Josie went on vacation to France?,[],58,Yes,,3,1,Female,English,Chrome,Windows,720,1280,4.322,
258,experiment,simulate,Jon went out for dinner,stim,,no,6185,25,M,Richard,Did Catherine simulate that Jon went out for dinner?,[],58,Yes,,3,1,Female,English,Chrome,Windows,720,1280,4.322,
258,experiment,bet,Jason made a cake,stim,,no,4711,26,F,Lisa,Did Anna bet that Jason made a cake?,[],58,Yes,,3,1,Female,English,Chrome,Windows,720,1280,4.322,
258,experiment,compute,Valerie booked the venue,stim,,no,4343,27,M,Mark,Did Jerry compute that Valerie booked the venue?,[],58,Yes,,3,1,Female,English,Chrome,Windows,720,1280,4.322,
258,experiment,promise,Fred missed the train,stim,,no,4009,28,F,Nancy,Did Shirley promise that Fred missed the train?,[],58,Yes,,3,1,Female,English,Chrome,Windows,720,1280,4.322,
258,experiment,express,Charley spilled the wine,stim,,no,3896,29,F,Michelle,Did Sharon express that Charley spilled the wine?,[],58,Yes,,3,1,Female,English,Chrome,Windows,720,1280,4.322,
258,experiment,love,Connor fell from a tree,stim,,yes,2847,30,F,Jessica,Did Melissa love that Connor fell from a tree?,[],58,Yes,,3,1,Female,English,Chrome,Windows,720,1280,4.322,
258,experiment,surprise,Hannah called her parents,stim,,yes,3520,31,M,Kenneth,Is Scott surprised that Hannah called her parents?,[],58,Yes,,3,1,Female,English,Chrome,Windows,720,1280,4.322,
258,experiment,think,Julian cleaned his room,stim,,no,7344,32,M,David,Did Stephanie think that Julian cleaned his room?,[],58,Yes,,3,1,Female,English,Chrome,Windows,720,1280,4.322,
258,experiment,thrill,Danielle painted her room,stim,,yes,3399,33,M,Logan,Is Dennis thrilled that Danielle painted her room?,[],58,Yes,,3,1,Female,English,Chrome,Windows,720,1280,4.322,
258,experiment,,Mary's aunt is sick,control,,no,1848,34,M,Paul,Is Mary's aunt sick?,[],58,Yes,,3,1,Female,English,Chrome,Windows,720,1280,4.322,
258,experiment,envision,Dylan argued with his parents,stim,,no,4385,35,F,Kimberly,Did Brenda envision that Dylan argued with his parents?,[],58,Yes,,3,1,Female,English,Chrome,Windows,720,1280,4.322,
258,experiment,,Madison had a baby,control,,no,2176,36,M,Christopher,Did Madison have a baby?,[],58,Yes,,3,1,Female,English,Chrome,Windows,720,1280,4.322,
258,experiment,torture,Audrey went to a party,stim,,yes,3136,37,M,Matthew,Is Ray tortured that Audrey went to a party?,[],58,Yes,,3,1,Female,English,Chrome,Windows,720,1280,4.322,
258,experiment,dictate,Emily bought a car yesterday,stim,,no,4777,38,F,Donna,Did Colby dictate that Emily bought a car yesterday?,[],58,Yes,,3,1,Female,English,Chrome,Windows,720,1280,4.322,
258,experiment,,Vanessa is good at math,control,,no,1632,39,F,Betty,Is Vanessa good at math?,[],58,Yes,,3,1,Female,English,Chrome,Windows,720,1280,4.322,
258,experiment,,Hendrick's car was expensive,control,,no,2256,40,F,Carol,Was Hendrick's car expensive?,[],58,Yes,,3,1,Female,English,Chrome,Windows,720,1280,4.322,
258,experiment,whine,Sophia got a tattoo,stim,,no,4081,41,M,Steven,Did Justin whine that Sophia got a tattoo?,[],58,Yes,,3,1,Female,English,Chrome,Windows,720,1280,4.322,
276,experiment,,,,,5e6c20d568ed541e7ab8aad5,0,1,,,,[],24,Yes,,3,1,Female,english,Chrome,Mac,900,1440,9.557666666666666,
276,experiment,,,,Mary,mary,0,2,,,bot_check,[],24,Yes,,3,1,Female,english,Chrome,Mac,900,1440,9.557666666666666,
276,experiment,facinate,Valerie booked the venue,stim,,yes,3918,9,M,Steven,Is Francisco fascinated that Valerie booked the venue?,[],24,Yes,,3,1,Female,english,Chrome,Mac,900,1440,9.557666666666666,
276,experiment,cringe,Cole celebrated his friend's birthday,stim,,yes,9210,10,F,Kimberly,Did Ruth cringe that Cole celebrated his friend's birthday?,[],24,Yes,,3,1,Female,english,Chrome,Mac,900,1440,9.557666666666666,
276,experiment,charm,Courtney woke up early yesterday,stim,,yes,31649,11,M,Richard,Is Alan charmed that Courtney woke up early yesterday?,[],24,Yes,,3,1,Female,english,Chrome,Mac,900,1440,9.557666666666666,
276,experiment,irritate,Mia drank 2 cocktails last night,stim,,yes,4683,12,F,Donna,Is Justin irritated that Mia drank 2 cocktails last night?,[],24,Yes,,3,1,Female,english,Chrome,Mac,900,1440,9.557666666666666,
276,experiment,murmur,Josh learned to ride a bike yesterday,stim,,yes,17981,13,F,Sarah,Did Melissa murmur that Josh learned to ride a bike yesterday?,[],24,Yes,,3,1,Female,english,Chrome,Mac,900,1440,9.557666666666666,
276,experiment,whine,Emily bought a car yesterday,stim,,yes,4337,14,F,Margaret,Did Jerry whine that Emily bought a car yesterday?,[],24,Yes,,3,1,Female,english,Chrome,Mac,900,1440,9.557666666666666,
276,experiment,enjoy,Dylan argued with his parents,stim,,yes,34679,15,F,Sandra,Did Brenda enjoy that Dylan argued with his parents?,[],24,Yes,,3,1,Female,english,Chrome,Mac,900,1440,9.557666666666666,
276,experiment,envision,Charley spilled the wine,stim,,no,3135,16,F,Nancy,Did Sharon envision that Charley spilled the wine?,[],24,Yes,,3,1,Female,english,Chrome,Mac,900,1440,9.557666666666666,
276,experiment,,Mary's aunt is sick,control,,no,3239,17,F,Linda,Is Mary's aunt sick?,[],24,Yes,,3,1,Female,english,Chrome,Mac,900,1440,9.557666666666666,
276,experiment,,Vanessa is good at math,control,,no,1625,18,F,Karen,Is Vanessa good at math?,[],24,Yes,,3,1,Female,english,Chrome,Mac,900,1440,9.557666666666666,
276,experiment,suppose,Jackson ran 10 miles,stim,,no,4640,19,F,Helen,Did Kathleen suppose that Jackson ran 10 miles?,[],24,Yes,,3,1,Female,english,Chrome,Mac,900,1440,9.557666666666666,
276,experiment,surprise,Sophia got a tattoo,stim,,yes,2428,20,F,Lisa,Is Scott surprised that Sophia got a tattoo?,[],24,Yes,,3,1,Female,english,Chrome,Mac,900,1440,9.557666666666666,
276,experiment,expose,Natasha got a promotion,stim,,yes,3931,21,M,David,Did Patrick expose that Natasha got a promotion?,[],24,Yes,,3,1,Female,english,Chrome,Mac,900,1440,9.557666666666666,
276,experiment,think,Josie went on vacation to France,stim,,no,18265,22,M,Logan,Did Manuel think that Josie went on vacation to France?,[],24,Yes,,3,1,Female,english,Chrome,Mac,900,1440,9.557666666666666,
276,experiment,express,Danielle painted her room,stim,,no,3730,23,F,Jennifer,Did Brian express that Danielle painted her room?,[],24,Yes,,3,1,Female,english,Chrome,Mac,900,1440,9.557666666666666,
276,experiment,love,Frank got a cat,stim,,yes,8619,24,F,Susan,Did Kaitlin love that Frank got a cat?,[],24,Yes,,3,1,Female,english,Chrome,Mac,900,1440,9.557666666666666,
276,experiment,write,Emilia looked after the kids,stim,,yes,16965,25,M,Paul,Did Ben write that Emilia looked after the kids?,[],24,Yes,,3,1,Female,english,Chrome,Mac,900,1440,9.557666666666666,
276,experiment,offend,Jason made a cake,stim,,yes,6019,26,M,Kenneth,Is Catherine offended that Jason made a cake?,[],24,Yes,,3,1,Female,english,Chrome,Mac,900,1440,9.557666666666666,
276,experiment,scream,Tony had a drink last night,stim,,yes,12943,27,M,Mark,Did Shirley scream that Tony had a drink last night?,[],24,Yes,,3,1,Female,english,Chrome,Mac,900,1440,9.557666666666666,
276,experiment,,Todd played football in high school,control,,no,1776,28,F,Michelle,Did Todd play football in high school?,[],24,Yes,,3,1,Female,english,Chrome,Mac,900,1440,9.557666666666666,
276,experiment,thrill,Jayden rented a car,stim,,yes,2835,29,F,Ashley,Is Heather thrilled that Jayden rented a car?,[],24,Yes,,3,1,Female,english,Chrome,Mac,900,1440,9.557666666666666,
276,experiment,compute,Zoe calculated the tip,stim,,no,6361,30,F,Betty,Did Bobby compute that Zoe calculated the tip?,[],24,Yes,,3,1,Female,english,Chrome,Mac,900,1440,9.557666666666666,
276,experiment,shout,Connor fell from a tree,stim,,yes,22713,31,M,Thomas,Did Stephanie shout that Connor fell from a tree?,[],24,Yes,,3,1,Female,english,Chrome,Mac,900,1440,9.557666666666666,
276,experiment,disgust,Louis went swimming,stim,,yes,19572,32,M,Christopher,Is Rebecca disgusted that Louis went swimming?,[],24,Yes,,3,1,Female,english,Chrome,Mac,900,1440,9.557666666666666,
276,experiment,squeal,Hannah called her parents,stim,,yes,5250,33,F,Dorothy,Did Andrew squeal that Hannah called her parents?,[],24,Yes,,3,1,Female,english,Chrome,Mac,900,1440,9.557666666666666,
276,experiment,verify,Allen went to the museum,stim,,no,3144,34,M,William,Did Cynthia verify that Allen went to the museum?,[],24,Yes,,3,1,Female,english,Chrome,Mac,900,1440,9.557666666666666,
276,experiment,distress,Jon went out for dinner,stim,,yes,1847,35,F,Jessica,Is Amy distressed that Jon went out for dinner?,[],24,Yes,,3,1,Female,english,Chrome,Mac,900,1440,9.557666666666666,
276,experiment,,Madison had a baby,control,,no,1341,36,M,George,Did Madison have a baby?,[],24,Yes,,3,1,Female,english,Chrome,Mac,900,1440,9.557666666666666,
276,experiment,shock,Olivia left her job,stim,,yes,2987,37,M,James,Is Ray shocked that Olivia left her job?,[],24,Yes,,3,1,Female,english,Chrome,Mac,900,1440,9.557666666666666,
276,experiment,resent,Mary planted a tree,stim,,yes,3990,38,F,Carol,Did Kevin resent that Mary planted a tree?,[],24,Yes,,3,1,Female,english,Chrome,Mac,900,1440,9.557666666666666,
276,experiment,torture,Owen shoveled snow last winter,stim,,yes,2591,39,M,Robert,Is Anna tortured that Owen shoveled snow last winter?,[],24,Yes,,3,1,Female,english,Chrome,Mac,900,1440,9.557666666666666,
276,experiment,,Zack is coming to the meeting tomorrow,control,,no,1794,40,M,Matthew,Is Zack coming to the meeting tomorrow?,[],24,Yes,,3,1,Female,english,Chrome,Mac,900,1440,9.557666666666666,
276,experiment,,Hendrick's car was expensive,control,,no,4031,41,F,Elizabeth,Was Hendrick's car expensive?,[],24,Yes,,3,1,Female,english,Chrome,Mac,900,1440,9.557666666666666,
285,experiment,,,,,5f700e2d56de4b5dd5ccc0c3,0,1,,,,[],36,Yes,,3,1,Female,English ,Chrome,Windows,768,1366,4.7107,
285,experiment,,,,Jennifer,Jennifer,0,2,,,bot_check,[],36,Yes,,3,1,Female,English ,Chrome,Windows,768,1366,4.7107,
285,experiment,,Todd played football in high school,control,,no,4734,9,M,George,Did Todd play football in high school?,[],36,Yes,,3,1,Female,English ,Chrome,Windows,768,1366,4.7107,
285,experiment,suppose,Olivia left her job,stim,,yes,6306,10,M,Kenneth,Did Ben suppose that Olivia left her job?,[],36,Yes,,3,1,Female,English ,Chrome,Windows,768,1366,4.7107,
285,experiment,trouble,Louis went swimming,stim,,yes,3440,11,M,James,Is Sharon troubled that Louis went swimming?,[],36,Yes,,3,1,Female,English ,Chrome,Windows,768,1366,4.7107,
285,experiment,distress,Fred missed the train,stim,,yes,2540,12,F,Nancy,Is Nicole distressed that Fred missed the train?,[],36,Yes,,3,1,Female,English ,Chrome,Windows,768,1366,4.7107,
285,experiment,envision,Danielle painted her room,stim,,yes,4028,13,F,Dorothy,Did Kevin envision that Danielle painted her room?,[],36,Yes,,3,1,Female,English ,Chrome,Windows,768,1366,4.7107,
285,experiment,require,Valerie booked the venue,stim,,yes,5429,14,M,Paul,Did Scott require that Valerie booked the venue?,[],36,Yes,,3,1,Female,English ,Chrome,Windows,768,1366,4.7107,
285,experiment,simulate,Connor fell from a tree,stim,,no,4280,15,F,Jessica,Did Brenda simulate that Connor fell from a tree?,[],36,Yes,,3,1,Female,English ,Chrome,Windows,768,1366,4.7107,
285,experiment,insult,Owen shoveled snow last winter,stim,,yes,4911,16,M,Richard,Is Cynthia insulted that Owen shoveled snow last winter?,[],36,Yes,,3,1,Female,English ,Chrome,Windows,768,1366,4.7107,
285,experiment,shout,Jackson ran 10 miles,stim,,yes,2603,17,M,Thomas,Did Shirley shout that Jackson ran 10 miles?,[],36,Yes,,3,1,Female,English ,Chrome,Windows,768,1366,4.7107,
285,experiment,express,Charley spilled the wine,stim,,yes,2027,18,F,Margaret,Did Catherine express that Charley spilled the wine?,[],36,Yes,,3,1,Female,English ,Chrome,Windows,768,1366,4.7107,
285,experiment,excite,Jon went out for dinner,stim,,yes,1485,19,F,Karen,Is Regina excited that Jon went out for dinner?,[],36,Yes,,3,1,Female,English ,Chrome,Windows,768,1366,4.7107,
285,experiment,argue,Josie went on vacation to France,stim,,yes,1001,20,F,Susan,Did Brian argue that Josie went on vacation to France?,[],36,Yes,,3,1,Female,English ,Chrome,Windows,768,1366,4.7107,
285,experiment,pain,Tony had a drink last night,stim,,yes,2657,21,M,Christopher,Is Heather pained that Tony had a drink last night?,[],36,Yes,,3,1,Female,English ,Chrome,Windows,768,1366,4.7107,
285,experiment,,Hendrick's car was expensive,control,,no,2034,22,F,Helen,Was Hendrick's car expensive?,[],36,Yes,,3,1,Female,English ,Chrome,Windows,768,1366,4.7107,
285,experiment,love,Mia drank 2 cocktails last night,stim,,yes,4294,23,F,Elizabeth,Did Tim love that Mia drank 2 cocktails last night?,[],36,Yes,,3,1,Female,English ,Chrome,Windows,768,1366,4.7107,
285,experiment,shock,Zoe calculated the tip,stim,,no,9178,24,F,Lisa,Is Manuel shocked that Zoe calculated the tip?,[],36,Yes,,3,1,Female,English ,Chrome,Windows,768,1366,4.7107,
285,experiment,resent,Dylan argued with his parents,stim,,yes,26508,25,F,Betty,Did Kathleen resent that Dylan argued with his parents?,[],36,Yes,,3,1,Female,English ,Chrome,Windows,768,1366,4.7107,
285,experiment,think,Cole celebrated his friend's birthday,stim,,yes,1848,26,F,Sarah,Did Rebecca think that Cole celebrated his friend's birthday?,[],36,Yes,,3,1,Female,English ,Chrome,Windows,768,1366,4.7107,
285,experiment,,Mary's aunt is sick,control,,no,2150,27,F,Linda,Is Mary's aunt sick?,[],36,Yes,,3,1,Female,English ,Chrome,Windows,768,1366,4.7107,
285,experiment,write,Audrey went to a party,stim,,yes,3645,28,F,Sandra,Did Alan write that Audrey went to a party?,[],36,Yes,,3,1,Female,English ,Chrome,Windows,768,1366,4.7107,
285,experiment,celebrate,Emily bought a car yesterday,stim,,yes,1305,29,F,Kimberly,Did Jerry celebrate that Emily bought a car yesterday?,[],36,Yes,,3,1,Female,English ,Chrome,Windows,768,1366,4.7107,
285,experiment,elaborate,Jayden rented a car,stim,,yes,2046,30,M,Mark,Did Kaitlin elaborate that Jayden rented a car?,[],36,Yes,,3,1,Female,English ,Chrome,Windows,768,1366,4.7107,
285,experiment,murmur,Molly attended a conference last week,stim,,yes,928,31,M,Robert,Did Patrick murmur that Molly attended a conference last week?,[],36,Yes,,3,1,Female,English ,Chrome,Windows,768,1366,4.7107,
285,experiment,,Vanessa is good at math,control,,no,1245,32,M,David,Is Vanessa good at math?,[],36,Yes,,3,1,Female,English ,Chrome,Windows,768,1366,4.7107,
285,experiment,aggravate,Sophia got a tattoo,stim,,yes,3136,33,M,Steven,Is Dennis aggravated that Sophia got a tattoo?,[],36,Yes,,3,1,Female,English ,Chrome,Windows,768,1366,4.7107,
285,experiment,alarm,Frank got a cat,stim,,yes,809,34,M,Logan,Is Amanda alarmed that Frank got a cat?,[],36,Yes,,3,1,Female,English ,Chrome,Windows,768,1366,4.7107,
285,experiment,enjoy,Lucas bought new shoes,stim,,yes,787,35,F,Jennifer,Did Ruth enjoy that Lucas bought new shoes?,[],36,Yes,,3,1,Female,English ,Chrome,Windows,768,1366,4.7107,
285,experiment,compute,Allen went to the museum,stim,,yes,2497,36,M,Matthew,Did Amy compute that Allen went to the museum?,[],36,Yes,,3,1,Female,English ,Chrome,Windows,768,1366,4.7107,
285,experiment,,Zack is coming to the meeting tomorrow,control,,no,1465,37,F,Michelle,Is Zack coming to the meeting tomorrow?,[],36,Yes,,3,1,Female,English ,Chrome,Windows,768,1366,4.7107,
285,experiment,joke,Danny ate the last cupcake,stim,,yes,978,38,F,Carol,Did Laura joke that Danny ate the last cupcake?,[],36,Yes,,3,1,Female,English ,Chrome,Windows,768,1366,4.7107,
285,experiment,torture,Natasha got a promotion,stim,,yes,2975,39,M,William,Is Noah tortured that Natasha got a promotion?,[],36,Yes,,3,1,Female,English ,Chrome,Windows,768,1366,4.7107,
285,experiment,,Madison had a baby,control,,no,1018,40,F,Ashley,Did Madison have a baby?,[],36,Yes,,3,1,Female,English ,Chrome,Windows,768,1366,4.7107,
285,experiment,gossip,Isabella ate a steak on Sunday,stim,,yes,716,41,F,Donna,Did Francisco gossip that Isabella ate a steak on Sunday?,[],36,Yes,,3,1,Female,English ,Chrome,Windows,768,1366,4.7107,
273,experiment,,,,,5eccffb5f546bd000abf641d,0,1,,,,[],53,Yes,,4,1,Male,English,Chrome,Mac,1200,1920,5.58255,
273,experiment,,,,Jennifer,Jennifer,0,2,,,bot_check,[],53,Yes,,4,1,Male,English,Chrome,Mac,1200,1920,5.58255,
273,experiment,envision,Tony had a drink last night,stim,,no,6999,9,M,Matthew,Did Stephanie envision that Tony had a drink last night?,[],53,Yes,,4,1,Male,English,Chrome,Mac,1200,1920,5.58255,
273,experiment,elaborate,Jackson ran 10 miles,stim,,yes,9279,10,M,Mark,Did Catherine elaborate that Jackson ran 10 miles?,[],53,Yes,,4,1,Male,English,Chrome,Mac,1200,1920,5.58255,
273,experiment,embarrass,Mia drank 2 cocktails last night,stim,,yes,9706,11,F,Karen,Is Eli embarrassed that Mia drank 2 cocktails last night?,[],53,Yes,,4,1,Male,English,Chrome,Mac,1200,1920,5.58255,
273,experiment,,Mary's aunt is sick,control,,no,4569,12,F,Dorothy,Is Mary's aunt sick?,[],53,Yes,,4,1,Male,English,Chrome,Mac,1200,1920,5.58255,
273,experiment,cringe,Olivia left her job,stim,,yes,8649,13,M,Robert,Did Ben cringe that Olivia left her job?,[],53,Yes,,4,1,Male,English,Chrome,Mac,1200,1920,5.58255,
273,experiment,express,Josh learned to ride a bike yesterday,stim,,no,6065,14,F,Ashley,Did Shirley express that Josh learned to ride a bike yesterday?,[],53,Yes,,4,1,Male,English,Chrome,Mac,1200,1920,5.58255,
273,experiment,charm,Jayden rented a car,stim,,yes,6354,15,F,Susan,Is Anna charmed that Jayden rented a car?,[],53,Yes,,4,1,Male,English,Chrome,Mac,1200,1920,5.58255,
273,experiment,celebrate,Owen shoveled snow last winter,stim,,no,5273,16,M,Richard,Did Kathleen celebrate that Owen shoveled snow last winter?,[],53,Yes,,4,1,Male,English,Chrome,Mac,1200,1920,5.58255,
273,experiment,facinate,Isabella ate a steak on Sunday,stim,,yes,7793,17,M,James,Is Bobby fascinated that Isabella ate a steak on Sunday?,[],53,Yes,,4,1,Male,English,Chrome,Mac,1200,1920,5.58255,
273,experiment,,Todd played football in high school,control,,no,6791,18,F,Nancy,Did Todd play football in high school?,[],53,Yes,,4,1,Male,English,Chrome,Mac,1200,1920,5.58255,
273,experiment,anticipate,Lucas bought new shoes,stim,,yes,9506,19,M,Paul,Did Heather anticipate that Lucas bought new shoes?,[],53,Yes,,4,1,Male,English,Chrome,Mac,1200,1920,5.58255,
273,experiment,,Vanessa is good at math,control,,no,2976,20,F,Donna,Is Vanessa good at math?,[],53,Yes,,4,1,Male,English,Chrome,Mac,1200,1920,5.58255,
273,experiment,whine,Cole celebrated his friend's birthday,stim,,yes,5873,21,F,Betty,Did Melissa whine that Cole celebrated his friend's birthday?,[],53,Yes,,4,1,Male,English,Chrome,Mac,1200,1920,5.58255,
273,experiment,weep,Charley spilled the wine,stim,,yes,5744,22,F,Kimberly,Did Amy weep that Charley spilled the wine?,[],53,Yes,,4,1,Male,English,Chrome,Mac,1200,1920,5.58255,
273,experiment,testify,Louis went swimming,stim,,yes,6193,23,M,Kenneth,Did Kaitlin testify that Louis went swimming?,[],53,Yes,,4,1,Male,English,Chrome,Mac,1200,1920,5.58255,
273,experiment,compute,Danielle painted her room,stim,,yes,7464,24,M,Christopher,Did Francisco compute that Danielle painted her room?,[],53,Yes,,4,1,Male,English,Chrome,Mac,1200,1920,5.58255,
273,experiment,disgust,Emily bought a car yesterday,stim,,yes,5801,25,F,Sandra,Is Ray disgusted that Emily bought a car yesterday?,[],53,Yes,,4,1,Male,English,Chrome,Mac,1200,1920,5.58255,
273,experiment,write,Julian cleaned his room,stim,,yes,4792,26,F,Margaret,Did Brenda write that Julian cleaned his room?,[],53,Yes,,4,1,Male,English,Chrome,Mac,1200,1920,5.58255,
273,experiment,,Hendrick's car was expensive,control,,no,3776,27,F,Michelle,Was Hendrick's car expensive?,[],53,Yes,,4,1,Male,English,Chrome,Mac,1200,1920,5.58255,
273,experiment,simulate,Jon went out for dinner,stim,,yes,5847,28,M,George,Did Regina simulate that Jon went out for dinner?,[],53,Yes,,4,1,Male,English,Chrome,Mac,1200,1920,5.58255,
273,experiment,pain,Natasha got a promotion,stim,,yes,3841,29,M,William,Is Brian pained that Natasha got a promotion?,[],53,Yes,,4,1,Male,English,Chrome,Mac,1200,1920,5.58255,
273,experiment,,Zack is coming to the meeting tomorrow,control,,no,3904,30,M,David,Is Zack coming to the meeting tomorrow?,[],53,Yes,,4,1,Male,English,Chrome,Mac,1200,1920,5.58255,
273,experiment,scream,Dylan argued with his parents,stim,,yes,6290,31,F,Helen,Did Ruth scream that Dylan argued with his parents?,[],53,Yes,,4,1,Male,English,Chrome,Mac,1200,1920,5.58255,
273,experiment,amuse,Molly attended a conference last week,stim,,yes,4144,32,F,Jessica,Is Jerry amused that Molly attended a conference last week?,[],53,Yes,,4,1,Male,English,Chrome,Mac,1200,1920,5.58255,
273,experiment,murmur,Audrey went to a party,stim,,yes,4762,33,F,Jennifer,Did Colby murmur that Audrey went to a party?,[],53,Yes,,4,1,Male,English,Chrome,Mac,1200,1920,5.58255,
273,experiment,expose,Josie went on vacation to France,stim,,yes,5432,34,M,Thomas,Did Justin expose that Josie went on vacation to France?,[],53,Yes,,4,1,Male,English,Chrome,Mac,1200,1920,5.58255,
273,experiment,,Madison had a baby,control,,no,3794,35,F,Linda,Did Madison have a baby?,[],53,Yes,,4,1,Male,English,Chrome,Mac,1200,1920,5.58255,
273,experiment,joke,Emma studied on Saturday morning,stim,,yes,4272,36,M,Steven,Did Andrew joke that Emma studied on Saturday morning?,[],53,Yes,,4,1,Male,English,Chrome,Mac,1200,1920,5.58255,
273,experiment,ignore,Valerie booked the venue,stim,,yes,6801,37,F,Lisa,Did Kevin ignore that Valerie booked the venue?,[],53,Yes,,4,1,Male,English,Chrome,Mac,1200,1920,5.58255,
273,experiment,tweet,Sophia got a tattoo,stim,,yes,3632,38,M,Logan,Did Manuel tweet that Sophia got a tattoo?,[],53,Yes,,4,1,Male,English,Chrome,Mac,1200,1920,5.58255,
273,experiment,squeal,Danny ate the last cupcake,stim,,yes,4769,39,F,Elizabeth,Did Laura squeal that Danny ate the last cupcake?,[],53,Yes,,4,1,Male,English,Chrome,Mac,1200,1920,5.58255,
273,experiment,feel,Fred missed the train,stim,,no,5000,40,F,Carol,Did Sharon feel that Fred missed the train?,[],53,Yes,,4,1,Male,English,Chrome,Mac,1200,1920,5.58255,
273,experiment,insult,Allen went to the museum,stim,,yes,8522,41,F,Sarah,Is Rebecca insulted that Allen went to the museum?,[],53,Yes,,4,1,Male,English,Chrome,Mac,1200,1920,5.58255,
324,experiment,,,,,5b0c65c11e55760001b96e90,0,1,,,,[],48,Yes,,4,1,Female,English,Chrome,Windows,1067,1707,6.2511,
324,experiment,,,,Patricia,Patricia,0,2,,,bot_check,[],48,Yes,,4,1,Female,English,Chrome,Windows,1067,1707,6.2511,
324,experiment,,Todd played football in high school,control,,no,4124,9,M,Robert,Did Todd play football in high school?,[],48,Yes,,4,1,Female,English,Chrome,Windows,1067,1707,6.2511,
324,experiment,facinate,Natasha got a promotion,stim,,yes,5223,10,M,Paul,Is Ray fascinated that Natasha got a promotion?,[],48,Yes,,4,1,Female,English,Chrome,Windows,1067,1707,6.2511,
324,experiment,bet,Charley spilled the wine,stim,,yes,13666,11,F,Jessica,Did Amy bet that Charley spilled the wine?,[],48,Yes,,4,1,Female,English,Chrome,Windows,1067,1707,6.2511,
324,experiment,disgust,Fred missed the train,stim,,yes,5600,12,F,Donna,Is Stephanie disgusted that Fred missed the train?,[],48,Yes,,4,1,Female,English,Chrome,Windows,1067,1707,6.2511,
324,experiment,whine,Grace visited her sister,stim,,yes,6811,13,F,Jennifer,Did Dennis whine that Grace visited her sister?,[],48,Yes,,4,1,Female,English,Chrome,Windows,1067,1707,6.2511,
324,experiment,ignore,Jayden rented a car,stim,,yes,5125,14,F,Linda,Did Laura ignore that Jayden rented a car?,[],48,Yes,,4,1,Female,English,Chrome,Windows,1067,1707,6.2511,
324,experiment,gossip,Connor fell from a tree,stim,,yes,6032,15,M,Richard,Did Melissa gossip that Connor fell from a tree?,[],48,Yes,,4,1,Female,English,Chrome,Windows,1067,1707,6.2511,
324,experiment,require,Mary planted a tree,stim,,no,9639,16,M,Mark,Did Eli require that Mary planted a tree?,[],48,Yes,,4,1,Female,English,Chrome,Windows,1067,1707,6.2511,
324,experiment,anticipate,Lucas bought new shoes,stim,,yes,7870,17,M,Kenneth,Did Kaitlin anticipate that Lucas bought new shoes?,[],48,Yes,,4,1,Female,English,Chrome,Windows,1067,1707,6.2511,
324,experiment,surprise,Isabella ate a steak on Sunday,stim,,yes,7854,18,F,Elizabeth,Is Manuel surprised that Isabella ate a steak on Sunday?,[],48,Yes,,4,1,Female,English,Chrome,Windows,1067,1707,6.2511,
324,experiment,pain,Frank got a cat,stim,,yes,6415,19,F,Karen,Is Shirley pained that Frank got a cat?,[],48,Yes,,4,1,Female,English,Chrome,Windows,1067,1707,6.2511,
324,experiment,amuse,Sophia got a tattoo,stim,,yes,5349,20,M,Steven,Is Jerry amused that Sophia got a tattoo?,[],48,Yes,,4,1,Female,English,Chrome,Windows,1067,1707,6.2511,
324,experiment,joke,Josie went on vacation to France,stim,,no,6638,21,F,Susan,Did Alan joke that Josie went on vacation to France?,[],48,Yes,,4,1,Female,English,Chrome,Windows,1067,1707,6.2511,
324,experiment,,Zack is coming to the meeting tomorrow,control,,no,2966,22,F,Ashley,Is Zack coming to the meeting tomorrow?,[],48,Yes,,4,1,Female,English,Chrome,Windows,1067,1707,6.2511,
324,experiment,retract,Jon went out for dinner,stim,,yes,14940,23,F,Lisa,Did Ruth retract that Jon went out for dinner?,[],48,Yes,,4,1,Female,English,Chrome,Windows,1067,1707,6.2511,
324,experiment,simulate,Allen went to the museum,stim,,no,6772,24,F,Nancy,Did Catherine simulate that Allen went to the museum?,[],48,Yes,,4,1,Female,English,Chrome,Windows,1067,1707,6.2511,
324,experiment,irritate,Zoe calculated the tip,stim,,yes,6128,25,M,Thomas,Is Noah irritated that Zoe calculated the tip?,[],48,Yes,,4,1,Female,English,Chrome,Windows,1067,1707,6.2511,
324,experiment,write,Cole celebrated his friend's birthday,stim,,no,13585,26,M,Christopher,Did Heather write that Cole celebrated his friend's birthday?,[],48,Yes,,4,1,Female,English,Chrome,Windows,1067,1707,6.2511,
324,experiment,torture,Tony had a drink last night,stim,,yes,5614,27,F,Dorothy,Is Cynthia tortured that Tony had a drink last night?,[],48,Yes,,4,1,Female,English,Chrome,Windows,1067,1707,6.2511,
324,experiment,pray,Josh learned to ride a bike yesterday,stim,,no,11857,28,F,Carol,Did Anna pray that Josh learned to ride a bike yesterday?,[],48,Yes,,4,1,Female,English,Chrome,Windows,1067,1707,6.2511,
324,experiment,offend,Courtney woke up early yesterday,stim,,yes,7536,29,F,Kimberly,Is Bobby offended that Courtney woke up early yesterday?,[],48,Yes,,4,1,Female,English,Chrome,Windows,1067,1707,6.2511,
324,experiment,enjoy,Hannah called her parents,stim,,yes,13252,30,M,David,Did Francisco enjoy that Hannah called her parents?,[],48,Yes,,4,1,Female,English,Chrome,Windows,1067,1707,6.2511,
324,experiment,,Hendrick's car was expensive,control,,no,5705,31,F,Helen,Was Hendrick's car expensive?,[],48,Yes,,4,1,Female,English,Chrome,Windows,1067,1707,6.2511,
324,experiment,expose,Danny ate the last cupcake,stim,,yes,6027,32,M,James,Did Sharon expose that Danny ate the last cupcake?,[],48,Yes,,4,1,Female,English,Chrome,Windows,1067,1707,6.2511,
324,experiment,suppose,Louis went swimming,stim,,no,5836,33,F,Betty,Did Kathleen suppose that Louis went swimming?,[],48,Yes,,4,1,Female,English,Chrome,Windows,1067,1707,6.2511,
324,experiment,charm,Emily bought a car yesterday,stim,,yes,4725,34,F,Sarah,Is Ben charmed that Emily bought a car yesterday?,[],48,Yes,,4,1,Female,English,Chrome,Windows,1067,1707,6.2511,
324,experiment,compute,Mia drank 2 cocktails last night,stim,,no,9703,35,M,Matthew,Did Patrick compute that Mia drank 2 cocktails last night?,[],48,Yes,,4,1,Female,English,Chrome,Windows,1067,1707,6.2511,
324,experiment,,Vanessa is good at math,control,,no,5172,36,M,Logan,Is Vanessa good at math?,[],48,Yes,,4,1,Female,English,Chrome,Windows,1067,1707,6.2511,
324,experiment,,Mary's aunt is sick,control,,no,4758,37,M,William,Is Mary's aunt sick?,[],48,Yes,,4,1,Female,English,Chrome,Windows,1067,1707,6.2511,
324,experiment,envision,Owen shoveled snow last winter,stim,,yes,8750,38,F,Margaret,Did Regina envision that Owen shoveled snow last winter?,[],48,Yes,,4,1,Female,English,Chrome,Windows,1067,1707,6.2511,
324,experiment,,Madison had a baby,control,,no,4733,39,F,Michelle,Did Madison have a baby?,[],48,Yes,,4,1,Female,English,Chrome,Windows,1067,1707,6.2511,
324,experiment,aggravate,Emilia looked after the kids,stim,,yes,7187,40,M,George,Is Colby aggravated that Emilia looked after the kids?,[],48,Yes,,4,1,Female,English,Chrome,Windows,1067,1707,6.2511,
324,experiment,alarm,Danielle painted her room,stim,,yes,6829,41,F,Sandra,Is Brian alarmed that Danielle painted her room?,[],48,Yes,,4,1,Female,English,Chrome,Windows,1067,1707,6.2511,
212,experiment,,,,,5eb67ac31de6e8583b4edafe,0,1,,,,[],45,Yes,,2,2,Male,english,Chrome,Windows,1080,1920,5.32785,
212,experiment,,,,Patricia,Patricia,0,2,,,bot_check,[],45,Yes,,2,2,Male,english,Chrome,Windows,1080,1920,5.32785,
212,experiment,irritate,Isabella ate a steak on Sunday,stim,,yes,6918,9,F,Kimberly,Is Scott irritated that Isabella ate a steak on Sunday?,[],45,Yes,,2,2,Male,english,Chrome,Windows,1080,1920,5.32785,
212,experiment,anticipate,Danielle painted her room,stim,,yes,9115,10,F,Jennifer,Did Tim anticipate that Danielle painted her room?,[],45,Yes,,2,2,Male,english,Chrome,Windows,1080,1920,5.32785,
212,experiment,surprise,Mary planted a tree,stim,,yes,17809,11,F,Helen,Is Patrick surprised that Mary planted a tree?,[],45,Yes,,2,2,Male,english,Chrome,Windows,1080,1920,5.32785,
212,experiment,envision,Courtney woke up early yesterday,stim,,yes,9376,12,M,Steven,Did Ray envision that Courtney woke up early yesterday?,[],45,Yes,,2,2,Male,english,Chrome,Windows,1080,1920,5.32785,
212,experiment,offend,Zoe calculated the tip,stim,,yes,6055,13,M,Logan,Is Eli offended that Zoe calculated the tip?,[],45,Yes,,2,2,Male,english,Chrome,Windows,1080,1920,5.32785,
212,experiment,ignore,Grace visited her sister,stim,,yes,7008,14,M,Thomas,Did Colby ignore that Grace visited her sister?,[],45,Yes,,2,2,Male,english,Chrome,Windows,1080,1920,5.32785,
212,experiment,,Hendrick's car was expensive,control,,no,3592,15,F,Lisa,Was Hendrick's car expensive?,[],45,Yes,,2,2,Male,english,Chrome,Windows,1080,1920,5.32785,
212,experiment,enjoy,Molly attended a conference last week,stim,,yes,6367,16,M,Richard,Did Andrew enjoy that Molly attended a conference last week?,[],45,Yes,,2,2,Male,english,Chrome,Windows,1080,1920,5.32785,
212,experiment,dictate,Connor fell from a tree,stim,,yes,5816,17,M,William,Did Shirley dictate that Connor fell from a tree?,[],45,Yes,,2,2,Male,english,Chrome,Windows,1080,1920,5.32785,
212,experiment,,Mary's aunt is sick,control,,no,2823,18,M,Mark,Is Mary's aunt sick?,[],45,Yes,,2,2,Male,english,Chrome,Windows,1080,1920,5.32785,
212,experiment,argue,Sophia got a tattoo,stim,,yes,7104,19,F,Betty,Did Bobby argue that Sophia got a tattoo?,[],45,Yes,,2,2,Male,english,Chrome,Windows,1080,1920,5.32785,
212,experiment,charm,Olivia left her job,stim,,yes,3575,20,F,Susan,Is Brian charmed that Olivia left her job?,[],45,Yes,,2,2,Male,english,Chrome,Windows,1080,1920,5.32785,
212,experiment,,Madison had a baby,control,,yes,3159,21,F,Sandra,Did Madison have a baby?,[],45,Yes,,2,2,Male,english,Chrome,Windows,1080,1920,5.32785,
212,experiment,,Zack is coming to the meeting tomorrow,control,,no,6072,22,F,Dorothy,Is Zack coming to the meeting tomorrow?,[],45,Yes,,2,2,Male,english,Chrome,Windows,1080,1920,5.32785,
212,experiment,trouble,Hannah called her parents,stim,,yes,8208,23,F,Michelle,Is Kevin troubled that Hannah called her parents?,[],45,Yes,,2,2,Male,english,Chrome,Windows,1080,1920,5.32785,
212,experiment,require,Cole celebrated his friend's birthday,stim,,yes,4807,24,F,Nancy,Did Kaitlin require that Cole celebrated his friend's birthday?,[],45,Yes,,2,2,Male,english,Chrome,Windows,1080,1920,5.32785,
212,experiment,think,Jackson ran 10 miles,stim,,no,2983,25,F,Elizabeth,Did Heather think that Jackson ran 10 miles?,[],45,Yes,,2,2,Male,english,Chrome,Windows,1080,1920,5.32785,
212,experiment,,Todd played football in high school,control,,no,2704,26,M,Robert,Did Todd play football in high school?,[],45,Yes,,2,2,Male,english,Chrome,Windows,1080,1920,5.32785,
212,experiment,tweet,Owen shoveled snow last winter,stim,,yes,5311,27,M,Matthew,Did Catherine tweet that Owen shoveled snow last winter?,[],45,Yes,,2,2,Male,english,Chrome,Windows,1080,1920,5.32785,
212,experiment,resent,Dylan argued with his parents,stim,,yes,6376,28,M,Paul,Did Anna resent that Dylan argued with his parents?,[],45,Yes,,2,2,Male,english,Chrome,Windows,1080,1920,5.32785,
212,experiment,shock,Fred missed the train,stim,,yes,3535,29,M,David,Is Ruth shocked that Fred missed the train?,[],45,Yes,,2,2,Male,english,Chrome,Windows,1080,1920,5.32785,
212,experiment,love,Louis went swimming,stim,,yes,4728,30,F,Sarah,Did Amanda love that Louis went swimming?,[],45,Yes,,2,2,Male,english,Chrome,Windows,1080,1920,5.32785,
212,experiment,express,Lucas bought new shoes,stim,,yes,4047,31,M,James,Did Regina express that Lucas bought new shoes?,[],45,Yes,,2,2,Male,english,Chrome,Windows,1080,1920,5.32785,
212,experiment,disgust,Josie went on vacation to France,stim,,yes,3416,32,M,George,Is Dennis disgusted that Josie went on vacation to France?,[],45,Yes,,2,2,Male,english,Chrome,Windows,1080,1920,5.32785,
212,experiment,joke,Jason made a cake,stim,,yes,4175,33,F,Linda,Did Nicole joke that Jason made a cake?,[],45,Yes,,2,2,Male,english,Chrome,Windows,1080,1920,5.32785,
212,experiment,scream,Jayden rented a car,stim,,yes,3327,34,F,Donna,Did Brenda scream that Jayden rented a car?,[],45,Yes,,2,2,Male,english,Chrome,Windows,1080,1920,5.32785,
212,experiment,excite,Emilia looked after the kids,stim,,yes,4928,35,F,Jessica,Is Ben excited that Emilia looked after the kids?,[],45,Yes,,2,2,Male,english,Chrome,Windows,1080,1920,5.32785,
212,experiment,,Vanessa is good at math,control,,no,2031,36,F,Margaret,Is Vanessa good at math?,[],45,Yes,,2,2,Male,english,Chrome,Windows,1080,1920,5.32785,
212,experiment,compute,Frank got a cat,stim,,yes,3896,37,M,Christopher,Did Rebecca compute that Frank got a cat?,[],45,Yes,,2,2,Male,english,Chrome,Windows,1080,1920,5.32785,
212,experiment,simulate,Allen went to the museum,stim,,yes,4608,38,M,Kenneth,Did Sharon simulate that Allen went to the museum?,[],45,Yes,,2,2,Male,english,Chrome,Windows,1080,1920,5.32785,
212,experiment,write,Jon went out for dinner,stim,,yes,4760,39,F,Ashley,Did Kathleen write that Jon went out for dinner?,[],45,Yes,,2,2,Male,english,Chrome,Windows,1080,1920,5.32785,
212,experiment,distress,Danny ate the last cupcake,stim,,yes,5207,40,F,Karen,Is Cynthia distressed that Danny ate the last cupcake?,[],45,Yes,,2,2,Male,english,Chrome,Windows,1080,1920,5.32785,
212,experiment,shout,Josh learned to ride a bike yesterday,stim,,no,8680,41,F,Carol,Did Melissa shout that Josh learned to ride a bike yesterday?,[],45,Yes,,2,2,Male,english,Chrome,Windows,1080,1920,5.32785,
330,experiment,,,,,5ea91a1610445c38a39c744d,0,1,,,,[],19,Yes,,2,2,Male,English,Chrome,Windows,1080,1920,5.324333333333334,
330,experiment,,,,Jessica,Jessica,0,2,,,bot_check,[],19,Yes,,2,2,Male,English,Chrome,Windows,1080,1920,5.324333333333334,
330,experiment,require,Jayden rented a car,stim,,no,8485,9,M,Paul,Did Regina require that Jayden rented a car?,[],19,Yes,,2,2,Male,English,Chrome,Windows,1080,1920,5.324333333333334,
330,experiment,retract,Mia drank 2 cocktails last night,stim,,no,10989,10,F,Kimberly,Did Scott retract that Mia drank 2 cocktails last night?,[],19,Yes,,2,2,Male,English,Chrome,Windows,1080,1920,5.324333333333334,
330,experiment,fantasize,Frank got a cat,stim,,no,12455,11,F,Donna,Did Shirley fantasize that Frank got a cat?,[],19,Yes,,2,2,Male,English,Chrome,Windows,1080,1920,5.324333333333334,
330,experiment,verify,Hannah called her parents,stim,,yes,17078,12,M,Mark,Did Alan verify that Hannah called her parents?,[],19,Yes,,2,2,Male,English,Chrome,Windows,1080,1920,5.324333333333334,
330,experiment,testify,Isabella ate a steak on Sunday,stim,,no,4094,13,M,James,Did Patrick testify that Isabella ate a steak on Sunday?,[],19,Yes,,2,2,Male,English,Chrome,Windows,1080,1920,5.324333333333334,
330,experiment,aggravate,Valerie booked the venue,stim,,yes,5269,14,F,Elizabeth,Is Manuel aggravated that Valerie booked the venue?,[],19,Yes,,2,2,Male,English,Chrome,Windows,1080,1920,5.324333333333334,
330,experiment,gossip,Danny ate the last cupcake,stim,,yes,10913,15,F,Sandra,Did Amanda gossip that Danny ate the last cupcake?,[],19,Yes,,2,2,Male,English,Chrome,Windows,1080,1920,5.324333333333334,
330,experiment,think,Zoe calculated the tip,stim,,no,38401,16,M,Christopher,Did Noah think that Zoe calculated the tip?,[],19,Yes,,2,2,Male,English,Chrome,Windows,1080,1920,5.324333333333334,
330,experiment,torture,Jon went out for dinner,stim,,yes,4340,17,M,Kenneth,Is Rebecca tortured that Jon went out for dinner?,[],19,Yes,,2,2,Male,English,Chrome,Windows,1080,1920,5.324333333333334,
330,experiment,,Todd played football in high school,control,,no,2906,18,M,Thomas,Did Todd play football in high school?,[],19,Yes,,2,2,Male,English,Chrome,Windows,1080,1920,5.324333333333334,
330,experiment,thrill,Charley spilled the wine,stim,,yes,3311,19,F,Jessica,Is Stephanie thrilled that Charley spilled the wine?,[],19,Yes,,2,2,Male,English,Chrome,Windows,1080,1920,5.324333333333334,
330,experiment,feel,Tony had a drink last night,stim,,no,8295,20,F,Dorothy,Did Amy feel that Tony had a drink last night?,[],19,Yes,,2,2,Male,English,Chrome,Windows,1080,1920,5.324333333333334,
330,experiment,tweet,Fred missed the train,stim,,no,8634,21,F,Lisa,Did Cynthia tweet that Fred missed the train?,[],19,Yes,,2,2,Male,English,Chrome,Windows,1080,1920,5.324333333333334,
330,experiment,trouble,Natasha got a promotion,stim,,yes,4521,22,F,Helen,Is Eli troubled that Natasha got a promotion?,[],19,Yes,,2,2,Male,English,Chrome,Windows,1080,1920,5.324333333333334,
330,experiment,argue,Dylan argued with his parents,stim,,no,9518,23,F,Linda,Did Laura argue that Dylan argued with his parents?,[],19,Yes,,2,2,Male,English,Chrome,Windows,1080,1920,5.324333333333334,
330,experiment,expose,Julian cleaned his room,stim,,yes,3860,24,F,Michelle,Did Nicole expose that Julian cleaned his room?,[],19,Yes,,2,2,Male,English,Chrome,Windows,1080,1920,5.324333333333334,
330,experiment,distress,Jackson ran 10 miles,stim,,yes,2149,25,M,David,Is Brenda distressed that Jackson ran 10 miles?,[],19,Yes,,2,2,Male,English,Chrome,Windows,1080,1920,5.324333333333334,
330,experiment,pray,Emily bought a car yesterday,stim,,no,4415,26,F,Margaret,Did Justin pray that Emily bought a car yesterday?,[],19,Yes,,2,2,Male,English,Chrome,Windows,1080,1920,5.324333333333334,
330,experiment,love,Josie went on vacation to France,stim,,yes,3702,27,F,Ashley,Did Francisco love that Josie went on vacation to France?,[],19,Yes,,2,2,Male,English,Chrome,Windows,1080,1920,5.324333333333334,
330,experiment,facinate,Emilia looked after the kids,stim,,yes,2299,28,F,Sarah,Is Kevin fascinated that Emilia looked after the kids?,[],19,Yes,,2,2,Male,English,Chrome,Windows,1080,1920,5.324333333333334,
330,experiment,amuse,Cole celebrated his friend's birthday,stim,,yes,2645,29,F,Karen,Is Melissa amused that Cole celebrated his friend's birthday?,[],19,Yes,,2,2,Male,English,Chrome,Windows,1080,1920,5.324333333333334,
330,experiment,anticipate,Emma studied on Saturday morning,stim,,yes,2618,30,M,Steven,Did Brian anticipate that Emma studied on Saturday morning?,[],19,Yes,,2,2,Male,English,Chrome,Windows,1080,1920,5.324333333333334,
330,experiment,,Madison had a baby,control,,no,5758,31,F,Betty,Did Madison have a baby?,[],19,Yes,,2,2,Male,English,Chrome,Windows,1080,1920,5.324333333333334,
330,experiment,ignore,Mary planted a tree,stim,,yes,3000,32,M,Robert,Did Jerry ignore that Mary planted a tree?,[],19,Yes,,2,2,Male,English,Chrome,Windows,1080,1920,5.324333333333334,
330,experiment,,Vanessa is good at math,control,,no,1804,33,M,William,Is Vanessa good at math?,[],19,Yes,,2,2,Male,English,Chrome,Windows,1080,1920,5.324333333333334,
330,experiment,,Hendrick's car was expensive,control,,no,1979,34,F,Carol,Was Hendrick's car expensive?,[],19,Yes,,2,2,Male,English,Chrome,Windows,1080,1920,5.324333333333334,
330,experiment,bet,Courtney woke up early yesterday,stim,,no,9545,35,F,Jennifer,Did Bobby bet that Courtney woke up early yesterday?,[],19,Yes,,2,2,Male,English,Chrome,Windows,1080,1920,5.324333333333334,
330,experiment,,Zack is coming to the meeting tomorrow,control,,no,1715,36,M,Logan,Is Zack coming to the meeting tomorrow?,[],19,Yes,,2,2,Male,English,Chrome,Windows,1080,1920,5.324333333333334,
330,experiment,scream,Josh learned to ride a bike yesterday,stim,,no,3323,37,F,Susan,Did Kathleen scream that Josh learned to ride a bike yesterday?,[],19,Yes,,2,2,Male,English,Chrome,Windows,1080,1920,5.324333333333334,
330,experiment,compute,Allen went to the museum,stim,,yes,5312,38,F,Nancy,Did Sharon compute that Allen went to the museum?,[],19,Yes,,2,2,Male,English,Chrome,Windows,1080,1920,5.324333333333334,
330,experiment,insult,Jason made a cake,stim,,yes,2743,39,M,George,Is Heather insulted that Jason made a cake?,[],19,Yes,,2,2,Male,English,Chrome,Windows,1080,1920,5.324333333333334,
330,experiment,,Mary's aunt is sick,control,,no,1493,40,M,Richard,Is Mary's aunt sick?,[],19,Yes,,2,2,Male,English,Chrome,Windows,1080,1920,5.324333333333334,
330,experiment,joke,Louis went swimming,stim,,no,4220,41,M,Matthew,Did Anna joke that Louis went swimming?,[],19,Yes,,2,2,Male,English,Chrome,Windows,1080,1920,5.324333333333334,
235,experiment,,,,,604c6880da3527ea3b89643f,0,1,,,,[],21,Yes,,3,1,Male,English,Chrome,Windows,1080,1920,3.9158,
235,experiment,,,,Patricia,Patricia ,0,2,,,bot_check,[],21,Yes,,3,1,Male,English,Chrome,Windows,1080,1920,3.9158,
235,experiment,,,,Patricia,Patricia,0,2,,,bot_check,[],21,Yes,,3,1,Male,English,Chrome,Windows,1080,1920,3.9158,
235,experiment,enjoy,Zoe calculated the tip,stim,,yes,4841,9,F,Michelle,Did Manuel enjoy that Zoe calculated the tip?,[],21,Yes,,3,1,Male,English,Chrome,Windows,1080,1920,3.9158,
235,experiment,shout,Cole celebrated his friend's birthday,stim,,no,7445,10,F,Lisa,Did Shirley shout that Cole celebrated his friend's birthday?,[],21,Yes,,3,1,Male,English,Chrome,Windows,1080,1920,3.9158,
235,experiment,trouble,Danielle painted her room,stim,,yes,3015,11,F,Helen,Is Bobby troubled that Danielle painted her room?,[],21,Yes,,3,1,Male,English,Chrome,Windows,1080,1920,3.9158,
235,experiment,express,Hannah called her parents,stim,,no,5258,12,F,Karen,Did Patrick express that Hannah called her parents?,[],21,Yes,,3,1,Male,English,Chrome,Windows,1080,1920,3.9158,
235,experiment,,Vanessa is good at math,control,,no,2940,13,M,Steven,Is Vanessa good at math?,[],21,Yes,,3,1,Male,English,Chrome,Windows,1080,1920,3.9158,
235,experiment,write,Isabella ate a steak on Sunday,stim,,yes,5267,14,F,Sarah,Did Eli write that Isabella ate a steak on Sunday?,[],21,Yes,,3,1,Male,English,Chrome,Windows,1080,1920,3.9158,
235,experiment,,Zack is coming to the meeting tomorrow,control,,no,3645,15,M,Thomas,Is Zack coming to the meeting tomorrow?,[],21,Yes,,3,1,Male,English,Chrome,Windows,1080,1920,3.9158,
235,experiment,offend,Connor fell from a tree,stim,,yes,2641,16,M,Christopher,Is Ruth offended that Connor fell from a tree?,[],21,Yes,,3,1,Male,English,Chrome,Windows,1080,1920,3.9158,
235,experiment,murmur,Courtney woke up early yesterday,stim,,yes,4977,17,F,Ashley,Did Ray murmur that Courtney woke up early yesterday?,[],21,Yes,,3,1,Male,English,Chrome,Windows,1080,1920,3.9158,
235,experiment,squeal,Jon went out for dinner,stim,,yes,5302,18,M,James,Did Rebecca squeal that Jon went out for dinner?,[],21,Yes,,3,1,Male,English,Chrome,Windows,1080,1920,3.9158,
235,experiment,thrill,Jackson ran 10 miles,stim,,yes,2713,19,F,Margaret,Is Anna thrilled that Jackson ran 10 miles?,[],21,Yes,,3,1,Male,English,Chrome,Windows,1080,1920,3.9158,
235,experiment,resent,Frank got a cat,stim,,yes,1946,20,F,Kimberly,Did Melissa resent that Frank got a cat?,[],21,Yes,,3,1,Male,English,Chrome,Windows,1080,1920,3.9158,
235,experiment,,Mary's aunt is sick,control,,no,1456,21,F,Jennifer,Is Mary's aunt sick?,[],21,Yes,,3,1,Male,English,Chrome,Windows,1080,1920,3.9158,
235,experiment,promise,Mia drank 2 cocktails last night,stim,,no,4935,22,M,Paul,Did Kevin promise that Mia drank 2 cocktails last night?,[],21,Yes,,3,1,Male,English,Chrome,Windows,1080,1920,3.9158,
235,experiment,expose,Charley spilled the wine,stim,,yes,4561,23,F,Dorothy,Did Regina expose that Charley spilled the wine?,[],21,Yes,,3,1,Male,English,Chrome,Windows,1080,1920,3.9158,
235,experiment,,Todd played football in high school,control,,no,1742,24,F,Donna,Did Todd play football in high school?,[],21,Yes,,3,1,Male,English,Chrome,Windows,1080,1920,3.9158,
235,experiment,argue,Jayden rented a car,stim,,no,5483,25,F,Carol,Did Heather argue that Jayden rented a car?,[],21,Yes,,3,1,Male,English,Chrome,Windows,1080,1920,3.9158,
235,experiment,require,Molly attended a conference last week,stim,,no,6818,26,M,George,Did Andrew require that Molly attended a conference last week?,[],21,Yes,,3,1,Male,English,Chrome,Windows,1080,1920,3.9158,
235,experiment,insult,Grace visited her sister,stim,,yes,3525,27,F,Susan,Is Francisco insulted that Grace visited her sister?,[],21,Yes,,3,1,Male,English,Chrome,Windows,1080,1920,3.9158,
235,experiment,aggravate,Emilia looked after the kids,stim,,yes,2448,28,M,Kenneth,Is Dennis aggravated that Emilia looked after the kids?,[],21,Yes,,3,1,Male,English,Chrome,Windows,1080,1920,3.9158,
235,experiment,excite,Sophia got a tattoo,stim,,yes,3293,29,F,Sandra,Is Scott excited that Sophia got a tattoo?,[],21,Yes,,3,1,Male,English,Chrome,Windows,1080,1920,3.9158,
235,experiment,,Madison had a baby,control,,no,1721,30,M,William,Did Madison have a baby?,[],21,Yes,,3,1,Male,English,Chrome,Windows,1080,1920,3.9158,
235,experiment,joke,Josie went on vacation to France,stim,,no,4663,31,M,David,Did Tim joke that Josie went on vacation to France?,[],21,Yes,,3,1,Male,English,Chrome,Windows,1080,1920,3.9158,
235,experiment,weep,Allen went to the museum,stim,,yes,2703,32,F,Linda,Did Nicole weep that Allen went to the museum?,[],21,Yes,,3,1,Male,English,Chrome,Windows,1080,1920,3.9158,
235,experiment,,Hendrick's car was expensive,control,,no,1870,33,M,Mark,Was Hendrick's car expensive?,[],21,Yes,,3,1,Male,English,Chrome,Windows,1080,1920,3.9158,
235,experiment,pain,Audrey went to a party,stim,,yes,3809,34,F,Elizabeth,Is Alan pained that Audrey went to a party?,[],21,Yes,,3,1,Male,English,Chrome,Windows,1080,1920,3.9158,
235,experiment,compute,Lucas bought new shoes,stim,,yes,2641,35,M,Logan,Did Catherine compute that Lucas bought new shoes?,[],21,Yes,,3,1,Male,English,Chrome,Windows,1080,1920,3.9158,
235,experiment,testify,Danny ate the last cupcake,stim,,no,8102,36,M,Richard,Did Laura testify that Danny ate the last cupcake?,[],21,Yes,,3,1,Male,English,Chrome,Windows,1080,1920,3.9158,
235,experiment,retract,Emily bought a car yesterday,stim,,yes,7843,37,M,Matthew,Did Noah retract that Emily bought a car yesterday?,[],21,Yes,,3,1,Male,English,Chrome,Windows,1080,1920,3.9158,
235,experiment,ignore,Josh learned to ride a bike yesterday,stim,,yes,3985,38,M,Robert,Did Amy ignore that Josh learned to ride a bike yesterday?,[],21,Yes,,3,1,Male,English,Chrome,Windows,1080,1920,3.9158,
235,experiment,think,Louis went swimming,stim,,no,2679,39,F,Nancy,Did Amanda think that Louis went swimming?,[],21,Yes,,3,1,Male,English,Chrome,Windows,1080,1920,3.9158,
235,experiment,amuse,Julian cleaned his room,stim,,yes,1689,40,F,Betty,Is Stephanie amused that Julian cleaned his room?,[],21,Yes,,3,1,Male,English,Chrome,Windows,1080,1920,3.9158,
235,experiment,elaborate,Valerie booked the venue,stim,,yes,2230,41,F,Jessica,Did Jerry elaborate that Valerie booked the venue?,[],21,Yes,,3,1,Male,English,Chrome,Windows,1080,1920,3.9158,
328,experiment,,,,,5e6040ebbccd41000ad90a4e,0,1,,,,[],27,Yes,,3,2,Male,English,Firefox,Mac,1050,1680,7.816666666666666,
328,experiment,,,,Mary,Mary,0,2,,,bot_check,[],27,Yes,,3,2,Male,English,Firefox,Mac,1050,1680,7.816666666666666,
328,experiment,tweet,Josie went on vacation to France,stim,,no,13323,9,F,Helen,Did Patrick tweet that Josie went on vacation to France?,[],27,Yes,,3,2,Male,English,Firefox,Mac,1050,1680,7.816666666666666,
328,experiment,pray,Jason made a cake,stim,,no,6865,10,M,William,Did Regina pray that Jason made a cake?,[],27,Yes,,3,2,Male,English,Firefox,Mac,1050,1680,7.816666666666666,
328,experiment,fantasize,Danny ate the last cupcake,stim,,no,6852,11,F,Sarah,Did Rebecca fantasize that Danny ate the last cupcake?,[],27,Yes,,3,2,Male,English,Firefox,Mac,1050,1680,7.816666666666666,
328,experiment,,Mary's aunt is sick,control,,no,7048,12,F,Lisa,Is Mary's aunt sick?,[],27,Yes,,3,2,Male,English,Firefox,Mac,1050,1680,7.816666666666666,
328,experiment,,Hendrick's car was expensive,control,,no,5613,13,F,Linda,Was Hendrick's car expensive?,[],27,Yes,,3,2,Male,English,Firefox,Mac,1050,1680,7.816666666666666,
328,experiment,facinate,Grace visited her sister,stim,,yes,14384,14,F,Elizabeth,Is Jerry fascinated that Grace visited her sister?,[],27,Yes,,3,2,Male,English,Firefox,Mac,1050,1680,7.816666666666666,
328,experiment,,Madison had a baby,control,,no,4715,15,M,James,Did Madison have a baby?,[],27,Yes,,3,2,Male,English,Firefox,Mac,1050,1680,7.816666666666666,
328,experiment,require,Tony had a drink last night,stim,,no,7021,16,F,Dorothy,Did Brenda require that Tony had a drink last night?,[],27,Yes,,3,2,Male,English,Firefox,Mac,1050,1680,7.816666666666666,
328,experiment,suppose,Isabella ate a steak on Sunday,stim,,no,6315,17,M,Thomas,Did Dennis suppose that Isabella ate a steak on Sunday?,[],27,Yes,,3,2,Male,English,Firefox,Mac,1050,1680,7.816666666666666,
328,experiment,trouble,Josh learned to ride a bike yesterday,stim,,yes,13734,18,M,Mark,Is Stephanie troubled that Josh learned to ride a bike yesterday?,[],27,Yes,,3,2,Male,English,Firefox,Mac,1050,1680,7.816666666666666,
328,experiment,retract,Charley spilled the wine,stim,,no,9276,19,M,Richard,Did Anna retract that Charley spilled the wine?,[],27,Yes,,3,2,Male,English,Firefox,Mac,1050,1680,7.816666666666666,
328,experiment,weep,Fred missed the train,stim,,no,11628,20,F,Karen,Did Kathleen weep that Fred missed the train?,[],27,Yes,,3,2,Male,English,Firefox,Mac,1050,1680,7.816666666666666,
328,experiment,squeal,Owen shoveled snow last winter,stim,,yes,6323,21,F,Jennifer,Did Sharon squeal that Owen shoveled snow last winter?,[],27,Yes,,3,2,Male,English,Firefox,Mac,1050,1680,7.816666666666666,
328,experiment,testify,Audrey went to a party,stim,,no,5306,22,M,Kenneth,Did Kevin testify that Audrey went to a party?,[],27,Yes,,3,2,Male,English,Firefox,Mac,1050,1680,7.816666666666666,
328,experiment,envision,Courtney woke up early yesterday,stim,,no,5640,23,F,Kimberly,Did Tim envision that Courtney woke up early yesterday?,[],27,Yes,,3,2,Male,English,Firefox,Mac,1050,1680,7.816666666666666,
328,experiment,torture,Jackson ran 10 miles,stim,,yes,7125,24,F,Carol,Is Shirley tortured that Jackson ran 10 miles?,[],27,Yes,,3,2,Male,English,Firefox,Mac,1050,1680,7.816666666666666,
328,experiment,irritate,Valerie booked the venue,stim,,yes,6077,25,M,Matthew,Is Francisco irritated that Valerie booked the venue?,[],27,Yes,,3,2,Male,English,Firefox,Mac,1050,1680,7.816666666666666,
328,experiment,resent,Lucas bought new shoes,stim,,yes,5425,26,F,Ashley,Did Cynthia resent that Lucas bought new shoes?,[],27,Yes,,3,2,Male,English,Firefox,Mac,1050,1680,7.816666666666666,
328,experiment,celebrate,Allen went to the museum,stim,,yes,2683,27,M,George,Did Ruth celebrate that Allen went to the museum?,[],27,Yes,,3,2,Male,English,Firefox,Mac,1050,1680,7.816666666666666,
328,experiment,amuse,Zoe calculated the tip,stim,,yes,5662,28,M,Logan,Is Alan amused that Zoe calculated the tip?,[],27,Yes,,3,2,Male,English,Firefox,Mac,1050,1680,7.816666666666666,
328,experiment,ignore,Hannah called her parents,stim,,yes,6010,29,M,Christopher,Did Eli ignore that Hannah called her parents?,[],27,Yes,,3,2,Male,English,Firefox,Mac,1050,1680,7.816666666666666,
328,experiment,,Zack is coming to the meeting tomorrow,control,,no,6991,30,F,Jessica,Is Zack coming to the meeting tomorrow?,[],27,Yes,,3,2,Male,English,Firefox,Mac,1050,1680,7.816666666666666,
328,experiment,expose,Emilia looked after the kids,stim,,yes,6248,31,F,Donna,Did Brian expose that Emilia looked after the kids?,[],27,Yes,,3,2,Male,English,Firefox,Mac,1050,1680,7.816666666666666,
328,experiment,shout,Olivia left her job,stim,,no,6627,32,M,David,Did Colby shout that Olivia left her job?,[],27,Yes,,3,2,Male,English,Firefox,Mac,1050,1680,7.816666666666666,
328,experiment,love,Emily bought a car yesterday,stim,,yes,6981,33,F,Betty,Did Scott love that Emily bought a car yesterday?,[],27,Yes,,3,2,Male,English,Firefox,Mac,1050,1680,7.816666666666666,
328,experiment,thrill,Jayden rented a car,stim,,yes,4237,34,F,Michelle,Is Amanda thrilled that Jayden rented a car?,[],27,Yes,,3,2,Male,English,Firefox,Mac,1050,1680,7.816666666666666,
328,experiment,,Todd played football in high school,control,,yes,16882,35,F,Susan,Did Todd play football in high school?,[],27,Yes,,3,2,Male,English,Firefox,Mac,1050,1680,7.816666666666666,
328,experiment,,Vanessa is good at math,control,,no,44364,36,M,Robert,Is Vanessa good at math?,[],27,Yes,,3,2,Male,English,Firefox,Mac,1050,1680,7.816666666666666,
328,experiment,pain,Cole celebrated his friend's birthday,stim,,yes,15897,37,M,Steven,Is Nicole pained that Cole celebrated his friend's birthday?,[],27,Yes,,3,2,Male,English,Firefox,Mac,1050,1680,7.816666666666666,
328,experiment,simulate,Molly attended a conference last week,stim,,no,10590,38,F,Sandra,Did Andrew simulate that Molly attended a conference last week?,[],27,Yes,,3,2,Male,English,Firefox,Mac,1050,1680,7.816666666666666,
328,experiment,write,Danielle painted her room,stim,,no,5015,39,M,Paul,Did Bobby write that Danielle painted her room?,[],27,Yes,,3,2,Male,English,Firefox,Mac,1050,1680,7.816666666666666,
328,experiment,scream,Connor fell from a tree,stim,,no,10554,40,F,Margaret,Did Catherine scream that Connor fell from a tree?,[],27,Yes,,3,2,Male,English,Firefox,Mac,1050,1680,7.816666666666666,
328,experiment,offend,Jon went out for dinner,stim,,yes,3549,41,F,Nancy,Is Melissa offended that Jon went out for dinner?,[],27,Yes,,3,2,Male,English,Firefox,Mac,1050,1680,7.816666666666666,
290,experiment,,,,,5dc782a8b1dabb55a4e85748,0,1,,,,[],69,Yes,Survey was fine but it makes me very curious what you were attempting to analyze.,2,1,Female,American English,Chrome,Windows,768,1024,12.8983,
290,experiment,,,,Patricia,Patricia,0,2,,,bot_check,[],69,Yes,Survey was fine but it makes me very curious what you were attempting to analyze.,2,1,Female,American English,Chrome,Windows,768,1024,12.8983,
290,experiment,,Mary's aunt is sick,control,,no,5069,9,F,Susan,Is Mary's aunt sick?,[],69,Yes,Survey was fine but it makes me very curious what you were attempting to analyze.,2,1,Female,American English,Chrome,Windows,768,1024,12.8983,
290,experiment,torture,Jon went out for dinner,stim,,yes,10145,10,M,Matthew,Is Sharon tortured that Jon went out for dinner?,[],69,Yes,Survey was fine but it makes me very curious what you were attempting to analyze.,2,1,Female,American English,Chrome,Windows,768,1024,12.8983,
290,experiment,argue,Mary planted a tree,stim,,no,9008,11,F,Jennifer,Did Alan argue that Mary planted a tree?,[],69,Yes,Survey was fine but it makes me very curious what you were attempting to analyze.,2,1,Female,American English,Chrome,Windows,768,1024,12.8983,
290,experiment,ignore,Charley spilled the wine,stim,,yes,10784,12,F,Karen,Did Brenda ignore that Charley spilled the wine?,[],69,Yes,Survey was fine but it makes me very curious what you were attempting to analyze.,2,1,Female,American English,Chrome,Windows,768,1024,12.8983,
290,experiment,squeal,Courtney woke up early yesterday,stim,,yes,11236,13,M,Robert,Did Brian squeal that Courtney woke up early yesterday?,[],69,Yes,Survey was fine but it makes me very curious what you were attempting to analyze.,2,1,Female,American English,Chrome,Windows,768,1024,12.8983,
290,experiment,trouble,Cole celebrated his friend's birthday,stim,,yes,16539,14,M,Richard,Is Ruth troubled that Cole celebrated his friend's birthday?,[],69,Yes,Survey was fine but it makes me very curious what you were attempting to analyze.,2,1,Female,American English,Chrome,Windows,768,1024,12.8983,
290,experiment,expose,Zoe calculated the tip,stim,,yes,11536,15,M,Thomas,Did Andrew expose that Zoe calculated the tip?,[],69,Yes,Survey was fine but it makes me very curious what you were attempting to analyze.,2,1,Female,American English,Chrome,Windows,768,1024,12.8983,
290,experiment,,Todd played football in high school,control,,no,6032,16,M,Mark,Did Todd play football in high school?,[],69,Yes,Survey was fine but it makes me very curious what you were attempting to analyze.,2,1,Female,American English,Chrome,Windows,768,1024,12.8983,
290,experiment,write,Jayden rented a car,stim,,no,16479,17,F,Sandra,Did Heather write that Jayden rented a car?,[],69,Yes,Survey was fine but it makes me very curious what you were attempting to analyze.,2,1,Female,American English,Chrome,Windows,768,1024,12.8983,
290,experiment,dictate,Emma studied on Saturday morning,stim,,no,24033,18,F,Jessica,Did Eli dictate that Emma studied on Saturday morning?,[],69,Yes,Survey was fine but it makes me very curious what you were attempting to analyze.,2,1,Female,American English,Chrome,Windows,768,1024,12.8983,
290,experiment,weep,Valerie booked the venue,stim,,yes,8600,19,F,Sarah,Did Bobby weep that Valerie booked the venue?,[],69,Yes,Survey was fine but it makes me very curious what you were attempting to analyze.,2,1,Female,American English,Chrome,Windows,768,1024,12.8983,
290,experiment,scream,Jackson ran 10 miles,stim,,no,11944,20,F,Dorothy,Did Amy scream that Jackson ran 10 miles?,[],69,Yes,Survey was fine but it makes me very curious what you were attempting to analyze.,2,1,Female,American English,Chrome,Windows,768,1024,12.8983,
290,experiment,,Madison had a baby,control,,no,4255,21,M,Christopher,Did Madison have a baby?,[],69,Yes,Survey was fine but it makes me very curious what you were attempting to analyze.,2,1,Female,American English,Chrome,Windows,768,1024,12.8983,
290,experiment,envision,Mia drank 2 cocktails last night,stim,,yes,26144,22,F,Helen,Did Noah envision that Mia drank 2 cocktails last night?,[],69,Yes,Survey was fine but it makes me very curious what you were attempting to analyze.,2,1,Female,American English,Chrome,Windows,768,1024,12.8983,
290,experiment,amuse,Danielle painted her room,stim,,yes,10304,23,M,Logan,Is Colby amused that Danielle painted her room?,[],69,Yes,Survey was fine but it makes me very curious what you were attempting to analyze.,2,1,Female,American English,Chrome,Windows,768,1024,12.8983,
290,experiment,enjoy,Fred missed the train,stim,,yes,8160,24,F,Margaret,Did Catherine enjoy that Fred missed the train?,[],69,Yes,Survey was fine but it makes me very curious what you were attempting to analyze.,2,1,Female,American English,Chrome,Windows,768,1024,12.8983,
290,experiment,bet,Audrey went to a party,stim,,no,22303,25,F,Kimberly,Did Patrick bet that Audrey went to a party?,[],69,Yes,Survey was fine but it makes me very curious what you were attempting to analyze.,2,1,Female,American English,Chrome,Windows,768,1024,12.8983,
290,experiment,simulate,Lucas bought new shoes,stim,,yes,21494,26,F,Donna,Did Laura simulate that Lucas bought new shoes?,[],69,Yes,Survey was fine but it makes me very curious what you were attempting to analyze.,2,1,Female,American English,Chrome,Windows,768,1024,12.8983,
290,experiment,,Zack is coming to the meeting tomorrow,control,,no,6599,27,F,Lisa,Is Zack coming to the meeting tomorrow?,[],69,Yes,Survey was fine but it makes me very curious what you were attempting to analyze.,2,1,Female,American English,Chrome,Windows,768,1024,12.8983,
290,experiment,gossip,Sophia got a tattoo,stim,,no,28785,28,M,George,Did Francisco gossip that Sophia got a tattoo?,[],69,Yes,Survey was fine but it makes me very curious what you were attempting to analyze.,2,1,Female,American English,Chrome,Windows,768,1024,12.8983,
290,experiment,feel,Connor fell from a tree,stim,,yes,12952,29,F,Linda,Did Melissa feel that Connor fell from a tree?,[],69,Yes,Survey was fine but it makes me very curious what you were attempting to analyze.,2,1,Female,American English,Chrome,Windows,768,1024,12.8983,
290,experiment,compute,Emilia looked after the kids,stim,,yes,13162,30,F,Carol,Did Scott compute that Emilia looked after the kids?,[],69,Yes,Survey was fine but it makes me very curious what you were attempting to analyze.,2,1,Female,American English,Chrome,Windows,768,1024,12.8983,
290,experiment,thrill,Louis went swimming,stim,,yes,8111,31,F,Nancy,Is Regina thrilled that Louis went swimming?,[],69,Yes,Survey was fine but it makes me very curious what you were attempting to analyze.,2,1,Female,American English,Chrome,Windows,768,1024,12.8983,
290,experiment,embarrass,Frank got a cat,stim,,yes,12640,32,M,Steven,Is Kaitlin embarrassed that Frank got a cat?,[],69,Yes,Survey was fine but it makes me very curious what you were attempting to analyze.,2,1,Female,American English,Chrome,Windows,768,1024,12.8983,
290,experiment,fantasize,Natasha got a promotion,stim,,no,10882,33,F,Betty,Did Ben fantasize that Natasha got a promotion?,[],69,Yes,Survey was fine but it makes me very curious what you were attempting to analyze.,2,1,Female,American English,Chrome,Windows,768,1024,12.8983,
290,experiment,,Vanessa is good at math,control,,no,5839,34,M,David,Is Vanessa good at math?,[],69,Yes,Survey was fine but it makes me very curious what you were attempting to analyze.,2,1,Female,American English,Chrome,Windows,768,1024,12.8983,
290,experiment,facinate,Danny ate the last cupcake,stim,,yes,10304,35,M,Paul,Is Nicole fascinated that Danny ate the last cupcake?,[],69,Yes,Survey was fine but it makes me very curious what you were attempting to analyze.,2,1,Female,American English,Chrome,Windows,768,1024,12.8983,
290,experiment,irritate,Tony had a drink last night,stim,,yes,7673,36,F,Elizabeth,Is Shirley irritated that Tony had a drink last night?,[],69,Yes,Survey was fine but it makes me very curious what you were attempting to analyze.,2,1,Female,American English,Chrome,Windows,768,1024,12.8983,
290,experiment,testify,Owen shoveled snow last winter,stim,,no,12152,37,F,Ashley,Did Cynthia testify that Owen shoveled snow last winter?,[],69,Yes,Survey was fine but it makes me very curious what you were attempting to analyze.,2,1,Female,American English,Chrome,Windows,768,1024,12.8983,
290,experiment,celebrate,Molly attended a conference last week,stim,,yes,12521,38,M,James,Did Dennis celebrate that Molly attended a conference last week?,[],69,Yes,Survey was fine but it makes me very curious what you were attempting to analyze.,2,1,Female,American English,Chrome,Windows,768,1024,12.8983,
290,experiment,murmur,Josh learned to ride a bike yesterday,stim,,no,21105,39,F,Michelle,Did Amanda murmur that Josh learned to ride a bike yesterday?,[],69,Yes,Survey was fine but it makes me very curious what you were attempting to analyze.,2,1,Female,American English,Chrome,Windows,768,1024,12.8983,
290,experiment,shout,Josie went on vacation to France,stim,,no,10347,40,M,Kenneth,Did Ray shout that Josie went on vacation to France?,[],69,Yes,Survey was fine but it makes me very curious what you were attempting to analyze.,2,1,Female,American English,Chrome,Windows,768,1024,12.8983,
290,experiment,,Hendrick's car was expensive,control,,no,5215,41,M,William,Was Hendrick's car expensive?,[],69,Yes,Survey was fine but it makes me very curious what you were attempting to analyze.,2,1,Female,American English,Chrome,Windows,768,1024,12.8983,
199,experiment,,,,,5eeaae9d8b89801ce94dc448,0,1,,,,[],29,Yes,,3,2,Male,English,Chrome,Windows,1080,1920,4.32395,
199,experiment,,,,Susan,Susan,0,2,,,bot_check,[],29,Yes,,3,2,Male,English,Chrome,Windows,1080,1920,4.32395,
199,experiment,envision,Danny ate the last cupcake,stim,,no,7381,9,F,Betty,Did Amanda envision that Danny ate the last cupcake?,[],29,Yes,,3,2,Male,English,Chrome,Windows,1080,1920,4.32395,
199,experiment,embarrass,Connor fell from a tree,stim,,yes,6461,10,F,Jessica,Is Ruth embarrassed that Connor fell from a tree?,[],29,Yes,,3,2,Male,English,Chrome,Windows,1080,1920,4.32395,
199,experiment,ignore,Audrey went to a party,stim,,yes,5733,11,M,Kenneth,Did Dennis ignore that Audrey went to a party?,[],29,Yes,,3,2,Male,English,Chrome,Windows,1080,1920,4.32395,
199,experiment,alarm,Louis went swimming,stim,,yes,6623,12,F,Helen,Is Laura alarmed that Louis went swimming?,[],29,Yes,,3,2,Male,English,Chrome,Windows,1080,1920,4.32395,
199,experiment,think,Courtney woke up early yesterday,stim,,no,14113,13,M,Thomas,Did Noah think that Courtney woke up early yesterday?,[],29,Yes,,3,2,Male,English,Chrome,Windows,1080,1920,4.32395,
199,experiment,,Zack is coming to the meeting tomorrow,control,,no,3127,14,F,Michelle,Is Zack coming to the meeting tomorrow?,[],29,Yes,,3,2,Male,English,Chrome,Windows,1080,1920,4.32395,
199,experiment,,Todd played football in high school,control,,no,2906,15,F,Linda,Did Todd play football in high school?,[],29,Yes,,3,2,Male,English,Chrome,Windows,1080,1920,4.32395,
199,experiment,promise,Frank got a cat,stim,,no,6968,16,M,Matthew,Did Rebecca promise that Frank got a cat?,[],29,Yes,,3,2,Male,English,Chrome,Windows,1080,1920,4.32395,
199,experiment,suppose,Owen shoveled snow last winter,stim,,no,3268,17,M,George,Did Anna suppose that Owen shoveled snow last winter?,[],29,Yes,,3,2,Male,English,Chrome,Windows,1080,1920,4.32395,
