workerid,proliferate.condition,Word,content,exp,object,response,rt,slide_number_in_experiment,speakerGender,speakerName,utterance,catch_trials,subject_information.age,subject_information.asses,subject_information.comments,subject_information.education,subject_information.enjoyment,subject_information.gender,subject_information.language,system.Browser,system.OS,system.screenH,system.screenW,time_in_minutes,error
1686,condition1,,,,Patricia,Patricia,0,1,,,bot_check,[],24,Yes,,3,1,Female,English,Chrome,Windows,720,1280,3.32075,
1686,condition1,resent,Connor fell from a tree,stim,,0,4514,3,M,Robert,Did Rebecca resent that Connor fell from a tree?,[],24,Yes,,3,1,Female,English,Chrome,Windows,720,1280,3.32075,
1686,condition1,,Todd played football in high school,control,,1,4093,4,F,Donna,Did Todd play football in high school?,[],24,Yes,,3,1,Female,English,Chrome,Windows,720,1280,3.32075,
1686,condition1,pray,Charley spilled the wine,stim,,0,6697,5,M,David,Did Stephanie pray that Charley spilled the wine?,[],24,Yes,,3,1,Female,English,Chrome,Windows,720,1280,3.32075,
1686,condition1,thrill,Tony had a drink last night,stim,,0,4410,6,F,Lisa,Is Shirley thrilled that Tony had a drink last night?,[],24,Yes,,3,1,Female,English,Chrome,Windows,720,1280,3.32075,
1686,condition1,express,Danielle painted her room,stim,,0.55,7082,7,M,James,Did Bobby express that Danielle painted her room?,[],24,Yes,,3,1,Female,English,Chrome,Windows,720,1280,3.32075,
1686,condition1,,Mary's aunt is sick,control,,1,4247,8,M,Thomas,Is Mary's aunt sick?,[],24,Yes,,3,1,Female,English,Chrome,Windows,720,1280,3.32075,
1686,condition1,ignore,Natasha got a promotion,stim,,0,3561,9,F,Margaret,Did Andrew ignore that Natasha got a promotion?,[],24,Yes,,3,1,Female,English,Chrome,Windows,720,1280,3.32075,
1686,condition1,compute,Allen went to the museum,stim,,0,5209,10,F,Sandra,Did Amy compute that Allen went to the museum?,[],24,Yes,,3,1,Female,English,Chrome,Windows,720,1280,3.32075,
1686,condition1,weep,Dylan argued with his parents,stim,,0,4163,11,F,Jessica,Did Ruth weep that Dylan argued with his parents?,[],24,Yes,,3,1,Female,English,Chrome,Windows,720,1280,3.32075,
1686,condition1,pain,Molly attended a conference last week,stim,,0,4486,12,M,Paul,Is Tim pained that Molly attended a conference last week?,[],24,Yes,,3,1,Female,English,Chrome,Windows,720,1280,3.32075,
1686,condition1,enjoy,Danny ate the last cupcake,stim,,0,6271,13,M,William,Did Kaitlin enjoy that Danny ate the last cupcake?,[],24,Yes,,3,1,Female,English,Chrome,Windows,720,1280,3.32075,
1686,condition1,,Zack is coming to the meeting tomorrow,control,,1,2944,14,F,Karen,Is Zack coming to the meeting tomorrow?,[],24,Yes,,3,1,Female,English,Chrome,Windows,720,1280,3.32075,
1686,condition1,elaborate,Olivia left her job,stim,,0.43,5966,15,F,Helen,Did Jerry elaborate that Olivia left her job?,[],24,Yes,,3,1,Female,English,Chrome,Windows,720,1280,3.32075,
1686,condition1,simulate,Emma studied on Saturday morning,stim,,0.24,10558,16,F,Dorothy,Did Alan simulate that Emma studied on Saturday morning?,[],24,Yes,,3,1,Female,English,Chrome,Windows,720,1280,3.32075,
1686,condition1,trouble,Sophia got a tattoo,stim,,0,3438,17,F,Carol,Is Scott troubled that Sophia got a tattoo?,[],24,Yes,,3,1,Female,English,Chrome,Windows,720,1280,3.32075,
1686,condition1,,Vanessa is good at math,control,,1,3391,18,F,Ashley,Is Vanessa good at math?,[],24,Yes,,3,1,Female,English,Chrome,Windows,720,1280,3.32075,
1686,condition1,expose,Isabella ate a steak on Sunday,stim,,0,3729,19,F,Susan,Did Kevin expose that Isabella ate a steak on Sunday?,[],24,Yes,,3,1,Female,English,Chrome,Windows,720,1280,3.32075,
1686,condition1,embarrass,Owen shoveled snow last winter,stim,,0,3553,20,M,Christopher,Is Kathleen embarrassed that Owen shoveled snow last winter?,[],24,Yes,,3,1,Female,English,Chrome,Windows,720,1280,3.32075,
1686,condition1,,Madison had a baby,control,,1,2944,21,M,Logan,Did Madison have a baby?,[],24,Yes,,3,1,Female,English,Chrome,Windows,720,1280,3.32075,
1686,condition1,cringe,Lucas bought new shoes,stim,,0,3339,22,F,Kimberly,Did Sharon cringe that Lucas bought new shoes?,[],24,Yes,,3,1,Female,English,Chrome,Windows,720,1280,3.32075,
1686,condition1,promise,Grace visited her sister,stim,,0,3937,23,F,Sarah,Is Ray promised that Grace visited her sister?,[],24,Yes,,3,1,Female,English,Chrome,Windows,720,1280,3.32075,
1686,condition1,surprise,Audrey went to a party,stim,,0,3445,24,M,Steven,Is Francisco surprised that Audrey went to a party?,[],24,Yes,,3,1,Female,English,Chrome,Windows,720,1280,3.32075,
1686,condition1,shock,Jayden rented a car,stim,,0,2165,25,M,Matthew,Is Brenda shocked that Jayden rented a car?,[],24,Yes,,3,1,Female,English,Chrome,Windows,720,1280,3.32075,
1686,condition1,tweet,Hannah called her parents,stim,,0,4710,26,F,Betty,Did Ben tweet that Hannah called her parents?,[],24,Yes,,3,1,Female,English,Chrome,Windows,720,1280,3.32075,
1686,condition1,facinate,Josie went on vacation to France,stim,,0,3338,27,F,Linda,Is Manuel fascinated that Josie went on vacation to France?,[],24,Yes,,3,1,Female,English,Chrome,Windows,720,1280,3.32075,
1686,condition1,anticipate,Jackson ran 10 miles,stim,,0,2998,28,F,Jennifer,Did Regina anticipate that Jackson ran 10 miles?,[],24,Yes,,3,1,Female,English,Chrome,Windows,720,1280,3.32075,
1686,condition1,insult,Julian cleaned his room,stim,,0,3544,29,M,George,Is Amanda insulted that Julian cleaned his room?,[],24,Yes,,3,1,Female,English,Chrome,Windows,720,1280,3.32075,
1686,condition1,love,Emily bought a car yesterday,stim,,0,2951,30,F,Elizabeth,Did Eli love that Emily bought a car yesterday?,[],24,Yes,,3,1,Female,English,Chrome,Windows,720,1280,3.32075,
1686,condition1,require,Fred missed the train,stim,,0,5742,31,M,Richard,Did Heather require that Fred missed the train?,[],24,Yes,,3,1,Female,English,Chrome,Windows,720,1280,3.32075,
1686,condition1,,Hendrick's car was expensive,control,,1,3274,32,F,Nancy,Was Hendrick's car expensive?,[],24,Yes,,3,1,Female,English,Chrome,Windows,720,1280,3.32075,
1686,condition1,irritate,Frank got a cat,stim,,0,4526,33,F,Michelle,Is Nicole irritated that Frank got a cat?,[],24,Yes,,3,1,Female,English,Chrome,Windows,720,1280,3.32075,
1686,condition1,envision,Zoe calculated the tip,stim,,0.21,7260,34,M,Mark,Did Colby envision that Zoe calculated the tip?,[],24,Yes,,3,1,Female,English,Chrome,Windows,720,1280,3.32075,
1686,condition1,dictate,Mia drank 2 cocktails last night,stim,,0.79,6907,35,M,Kenneth,Did Brian dictate that Mia drank 2 cocktails last night?,[],24,Yes,,3,1,Female,English,Chrome,Windows,720,1280,3.32075,
1701,condition1,,,,Mary,Mary,0,1,,,bot_check,[],44,Yes,,4,1,Female,English,Chrome,Linux,869,412,8.693833333333334,
1701,condition1,promise,Fred missed the train,stim,,0.01,10540,3,F,Carol,Is Brenda promised that Fred missed the train?,[],44,Yes,,4,1,Female,English,Chrome,Linux,869,412,8.693833333333334,
1701,condition1,trouble,Sophia got a tattoo,stim,,0.94,18083,4,F,Lisa,Is Dennis troubled that Sophia got a tattoo?,[],44,Yes,,4,1,Female,English,Chrome,Linux,869,412,8.693833333333334,
1701,condition1,fantasize,Connor fell from a tree,stim,,0.08,10539,5,M,Robert,Did Kathleen fantasize that Connor fell from a tree?,[],44,Yes,,4,1,Female,English,Chrome,Linux,869,412,8.693833333333334,
1701,condition1,whine,Valerie booked the venue,stim,,0.03,11536,6,F,Nancy,Did Andrew whine that Valerie booked the venue?,[],44,Yes,,4,1,Female,English,Chrome,Linux,869,412,8.693833333333334,
1701,condition1,compute,Natasha got a promotion,stim,,0.04,10319,7,M,James,Did Colby compute that Natasha got a promotion?,[],44,Yes,,4,1,Female,English,Chrome,Linux,869,412,8.693833333333334,
1701,condition1,,Mary's aunt is sick,control,,0.99,5870,8,M,George,Is Mary's aunt sick?,[],44,Yes,,4,1,Female,English,Chrome,Linux,869,412,8.693833333333334,
1701,condition1,anticipate,Courtney woke up early yesterday,stim,,0.02,8991,9,F,Helen,Did Tim anticipate that Courtney woke up early yesterday?,[],44,Yes,,4,1,Female,English,Chrome,Linux,869,412,8.693833333333334,
1701,condition1,shock,Julian cleaned his room,stim,,0.04,6563,10,F,Sarah,Is Stephanie shocked that Julian cleaned his room?,[],44,Yes,,4,1,Female,English,Chrome,Linux,869,412,8.693833333333334,
1701,condition1,write,Molly attended a conference last week,stim,,0.03,9376,11,F,Elizabeth,Did Ben write that Molly attended a conference last week?,[],44,Yes,,4,1,Female,English,Chrome,Linux,869,412,8.693833333333334,
1701,condition1,elaborate,Jayden rented a car,stim,,0.04,15600,12,M,Matthew,Did Cynthia elaborate that Jayden rented a car?,[],44,Yes,,4,1,Female,English,Chrome,Linux,869,412,8.693833333333334,
1701,condition1,distress,Emilia looked after the kids,stim,,0.02,12832,13,F,Linda,Is Ray distressed that Emilia looked after the kids?,[],44,Yes,,4,1,Female,English,Chrome,Linux,869,412,8.693833333333334,
1701,condition1,,Vanessa is good at math,control,,0.94,8230,14,F,Jessica,Is Vanessa good at math?,[],44,Yes,,4,1,Female,English,Chrome,Linux,869,412,8.693833333333334,
1701,condition1,verify,Lucas bought new shoes,stim,,0.04,16149,15,F,Susan,Did Rebecca verify that Lucas bought new shoes?,[],44,Yes,,4,1,Female,English,Chrome,Linux,869,412,8.693833333333334,
1701,condition1,facinate,Emily bought a car yesterday,stim,,0.02,16193,16,F,Karen,Is Brian fascinated that Emily bought a car yesterday?,[],44,Yes,,4,1,Female,English,Chrome,Linux,869,412,8.693833333333334,
1701,condition1,celebrate,Frank got a cat,stim,,0.05,4902,17,M,William,Did Laura celebrate that Frank got a cat?,[],44,Yes,,4,1,Female,English,Chrome,Linux,869,412,8.693833333333334,
1701,condition1,bet,Cole celebrated his friend's birthday,stim,,0.09,40969,18,M,Steven,Did Kaitlin bet that Cole celebrated his friend's birthday?,[],44,Yes,,4,1,Female,English,Chrome,Linux,869,412,8.693833333333334,
1701,condition1,,Todd played football in high school,control,,0.95,19868,19,F,Sandra,Did Todd play football in high school?,[],44,Yes,,4,1,Female,English,Chrome,Linux,869,412,8.693833333333334,
1701,condition1,scream,Jason made a cake,stim,,0.03,8067,20,F,Kimberly,Did Shirley scream that Jason made a cake?,[],44,Yes,,4,1,Female,English,Chrome,Linux,869,412,8.693833333333334,
1701,condition1,retract,Louis went swimming,stim,,0.04,19474,21,F,Betty,Did Amanda retract that Louis went swimming?,[],44,Yes,,4,1,Female,English,Chrome,Linux,869,412,8.693833333333334,
1701,condition1,dictate,Grace visited her sister,stim,,0.03,6017,22,F,Jennifer,Did Patrick dictate that Grace visited her sister?,[],44,Yes,,4,1,Female,English,Chrome,Linux,869,412,8.693833333333334,
1701,condition1,think,Danielle painted her room,stim,,0.02,6668,23,M,Logan,Did Eli think that Danielle painted her room?,[],44,Yes,,4,1,Female,English,Chrome,Linux,869,412,8.693833333333334,
1701,condition1,squeal,Allen went to the museum,stim,,0.03,20633,24,M,Thomas,Did Heather squeal that Allen went to the museum?,[],44,Yes,,4,1,Female,English,Chrome,Linux,869,412,8.693833333333334,
1701,condition1,disgust,Owen shoveled snow last winter,stim,,0.15,49664,25,F,Michelle,Is Melissa disgusted that Owen shoveled snow last winter?,[],44,Yes,,4,1,Female,English,Chrome,Linux,869,412,8.693833333333334,
1701,condition1,,Madison had a baby,control,,0.92,8374,26,F,Ashley,Did Madison have a baby?,[],44,Yes,,4,1,Female,English,Chrome,Linux,869,412,8.693833333333334,
1701,condition1,weep,Danny ate the last cupcake,stim,,0.06,11625,27,M,Richard,Did Ruth weep that Danny ate the last cupcake?,[],44,Yes,,4,1,Female,English,Chrome,Linux,869,412,8.693833333333334,
1701,condition1,thrill,Hannah called her parents,stim,,0.03,9806,28,M,Kenneth,Is Justin thrilled that Hannah called her parents?,[],44,Yes,,4,1,Female,English,Chrome,Linux,869,412,8.693833333333334,
1701,condition1,insult,Josie went on vacation to France,stim,,0.04,9874,29,M,Paul,Is Jerry insulted that Josie went on vacation to France?,[],44,Yes,,4,1,Female,English,Chrome,Linux,869,412,8.693833333333334,
1701,condition1,,Hendrick's car was expensive,control,,0.96,7393,30,M,Mark,Was Hendrick's car expensive?,[],44,Yes,,4,1,Female,English,Chrome,Linux,869,412,8.693833333333334,
1701,condition1,irritate,Mia drank 2 cocktails last night,stim,,0.04,8416,31,M,David,Is Bobby irritated that Mia drank 2 cocktails last night?,[],44,Yes,,4,1,Female,English,Chrome,Linux,869,412,8.693833333333334,
1701,condition1,aggravate,Jon went out for dinner,stim,,0.05,17185,32,F,Donna,Is Regina aggravated that Jon went out for dinner?,[],44,Yes,,4,1,Female,English,Chrome,Linux,869,412,8.693833333333334,
1701,condition1,charm,Emma studied on Saturday morning,stim,,0.04,10236,33,M,Christopher,Is Noah charmed that Emma studied on Saturday morning?,[],44,Yes,,4,1,Female,English,Chrome,Linux,869,412,8.693833333333334,
1701,condition1,alarm,Olivia left her job,stim,,0.05,8391,34,F,Margaret,Is Alan alarmed that Olivia left her job?,[],44,Yes,,4,1,Female,English,Chrome,Linux,869,412,8.693833333333334,
1701,condition1,,Zack is coming to the meeting tomorrow,control,,0.93,10600,35,F,Dorothy,Is Zack coming to the meeting tomorrow?,[],44,Yes,,4,1,Female,English,Chrome,Linux,869,412,8.693833333333334,
1613,condition1,,,,Mary,Mary,0,1,,,bot_check,[],30,Yes,,4,2,Male,English ,Chrome,Windows,1080,1920,6.871666666666667,
1613,condition1,shout,Jayden rented a car,stim,,0.14,18187,3,M,Mark,Did Laura shout that Jayden rented a car?,[],30,Yes,,4,2,Male,English ,Chrome,Windows,1080,1920,6.871666666666667,
1613,condition1,envision,Emily bought a car yesterday,stim,,0.67,8856,4,F,Dorothy,Did Bobby envision that Emily bought a car yesterday?,[],30,Yes,,4,2,Male,English ,Chrome,Windows,1080,1920,6.871666666666667,
1613,condition1,promise,Louis went swimming,stim,,0.24,19804,5,M,Logan,Is Sharon promised that Louis went swimming?,[],30,Yes,,4,2,Male,English ,Chrome,Windows,1080,1920,6.871666666666667,
1613,condition1,weep,Hannah called her parents,stim,,0.07,15552,6,F,Nancy,Did Colby weep that Hannah called her parents?,[],30,Yes,,4,2,Male,English ,Chrome,Windows,1080,1920,6.871666666666667,
1613,condition1,dictate,Jackson ran 10 miles,stim,,0.11,10840,7,F,Carol,Did Stephanie dictate that Jackson ran 10 miles?,[],30,Yes,,4,2,Male,English ,Chrome,Windows,1080,1920,6.871666666666667,
1613,condition1,pray,Owen shoveled snow last winter,stim,,0.53,12019,8,F,Ashley,Did Kathleen pray that Owen shoveled snow last winter?,[],30,Yes,,4,2,Male,English ,Chrome,Windows,1080,1920,6.871666666666667,
1613,condition1,scream,Natasha got a promotion,stim,,0.78,11528,9,F,Karen,Did Ben scream that Natasha got a promotion?,[],30,Yes,,4,2,Male,English ,Chrome,Windows,1080,1920,6.871666666666667,
1613,condition1,alarm,Frank got a cat,stim,,0.32,7216,10,M,Thomas,Is Catherine alarmed that Frank got a cat?,[],30,Yes,,4,2,Male,English ,Chrome,Windows,1080,1920,6.871666666666667,
1613,condition1,offend,Dylan argued with his parents,stim,,0.32,9439,11,F,Sandra,Is Regina offended that Dylan argued with his parents?,[],30,Yes,,4,2,Male,English ,Chrome,Windows,1080,1920,6.871666666666667,
1613,condition1,gossip,Connor fell from a tree,stim,,0.64,8644,12,M,Richard,Did Anna gossip that Connor fell from a tree?,[],30,Yes,,4,2,Male,English ,Chrome,Windows,1080,1920,6.871666666666667,
1613,condition1,joke,Isabella ate a steak on Sunday,stim,,0.36,10603,13,F,Donna,Did Manuel joke that Isabella ate a steak on Sunday?,[],30,Yes,,4,2,Male,English ,Chrome,Windows,1080,1920,6.871666666666667,
1613,condition1,insult,Fred missed the train,stim,,0.15,10168,14,F,Kimberly,Is Cynthia insulted that Fred missed the train?,[],30,Yes,,4,2,Male,English ,Chrome,Windows,1080,1920,6.871666666666667,
1613,condition1,,Mary's aunt is sick,control,,0.91,5688,15,M,Christopher,Is Mary's aunt sick?,[],30,Yes,,4,2,Male,English ,Chrome,Windows,1080,1920,6.871666666666667,
1613,condition1,anticipate,Mia drank 2 cocktails last night,stim,,0.47,12160,16,F,Margaret,Did Alan anticipate that Mia drank 2 cocktails last night?,[],30,Yes,,4,2,Male,English ,Chrome,Windows,1080,1920,6.871666666666667,
1613,condition1,elaborate,Audrey went to a party,stim,,0.58,12744,17,M,David,Did Dennis elaborate that Audrey went to a party?,[],30,Yes,,4,2,Male,English ,Chrome,Windows,1080,1920,6.871666666666667,
1613,condition1,,Zack is coming to the meeting tomorrow,control,,0.99,8967,18,M,Matthew,Is Zack coming to the meeting tomorrow?,[],30,Yes,,4,2,Male,English ,Chrome,Windows,1080,1920,6.871666666666667,
1613,condition1,fantasize,Julian cleaned his room,stim,,0.11,9620,19,F,Betty,Did Rebecca fantasize that Julian cleaned his room?,[],30,Yes,,4,2,Male,English ,Chrome,Windows,1080,1920,6.871666666666667,
1613,condition1,whine,Josh learned to ride a bike yesterday,stim,,0.12,8744,20,F,Helen,Did Amy whine that Josh learned to ride a bike yesterday?,[],30,Yes,,4,2,Male,English ,Chrome,Windows,1080,1920,6.871666666666667,
1613,condition1,suppose,Allen went to the museum,stim,,0.4,14888,21,F,Jessica,Did Melissa suppose that Allen went to the museum?,[],30,Yes,,4,2,Male,English ,Chrome,Windows,1080,1920,6.871666666666667,
1613,condition1,tweet,Charley spilled the wine,stim,,0.23,7444,22,M,Robert,Did Ruth tweet that Charley spilled the wine?,[],30,Yes,,4,2,Male,English ,Chrome,Windows,1080,1920,6.871666666666667,
1613,condition1,trouble,Valerie booked the venue,stim,,0.05,7047,23,M,James,Is Ray troubled that Valerie booked the venue?,[],30,Yes,,4,2,Male,English ,Chrome,Windows,1080,1920,6.871666666666667,
1613,condition1,,Vanessa is good at math,control,,0.97,5184,24,F,Susan,Is Vanessa good at math?,[],30,Yes,,4,2,Male,English ,Chrome,Windows,1080,1920,6.871666666666667,
1613,condition1,express,Olivia left her job,stim,,0.77,7365,25,M,Paul,Did Patrick express that Olivia left her job?,[],30,Yes,,4,2,Male,English ,Chrome,Windows,1080,1920,6.871666666666667,
1613,condition1,bet,Lucas bought new shoes,stim,,0.21,6588,26,F,Lisa,Did Amanda bet that Lucas bought new shoes?,[],30,Yes,,4,2,Male,English ,Chrome,Windows,1080,1920,6.871666666666667,
1613,condition1,enjoy,Courtney woke up early yesterday,stim,,0.14,8535,27,M,Steven,Did Justin enjoy that Courtney woke up early yesterday?,[],30,Yes,,4,2,Male,English ,Chrome,Windows,1080,1920,6.871666666666667,
1613,condition1,thrill,Sophia got a tattoo,stim,,0.11,5572,28,F,Jennifer,Is Scott thrilled that Sophia got a tattoo?,[],30,Yes,,4,2,Male,English ,Chrome,Windows,1080,1920,6.871666666666667,
1613,condition1,pain,Jon went out for dinner,stim,,0.07,9080,29,F,Michelle,Is Brenda pained that Jon went out for dinner?,[],30,Yes,,4,2,Male,English ,Chrome,Windows,1080,1920,6.871666666666667,
1613,condition1,cringe,Cole celebrated his friend's birthday,stim,,0.04,9060,30,M,Kenneth,Did Heather cringe that Cole celebrated his friend's birthday?,[],30,Yes,,4,2,Male,English ,Chrome,Windows,1080,1920,6.871666666666667,
1613,condition1,,Madison had a baby,control,,0.98,4388,31,F,Elizabeth,Did Madison have a baby?,[],30,Yes,,4,2,Male,English ,Chrome,Windows,1080,1920,6.871666666666667,
1613,condition1,excite,Danielle painted her room,stim,,0.14,9884,32,M,George,Is Eli excited that Danielle painted her room?,[],30,Yes,,4,2,Male,English ,Chrome,Windows,1080,1920,6.871666666666667,
1613,condition1,verify,Emilia looked after the kids,stim,,0.87,9843,33,M,William,Did Brian verify that Emilia looked after the kids?,[],30,Yes,,4,2,Male,English ,Chrome,Windows,1080,1920,6.871666666666667,
1613,condition1,,Hendrick's car was expensive,control,,0.96,6070,34,F,Linda,Was Hendrick's car expensive?,[],30,Yes,,4,2,Male,English ,Chrome,Windows,1080,1920,6.871666666666667,
1613,condition1,,Todd played football in high school,control,,1,7496,35,F,Sarah,Did Todd play football in high school?,[],30,Yes,,4,2,Male,English ,Chrome,Windows,1080,1920,6.871666666666667,
1604,condition1,,,,Jessica,Jessica,0,1,,,bot_check,[],69,Yes,,3,2,Female,English,Firefox,Windows,864,1536,6.182716666666667,
1604,condition1,whine,Julian cleaned his room,stim,,0.06,17916,3,F,Sandra,Did Rebecca whine that Julian cleaned his room?,[],69,Yes,,3,2,Female,English,Firefox,Windows,864,1536,6.182716666666667,
1604,condition1,enjoy,Natasha got a promotion,stim,,0.02,6809,4,M,Matthew,Did Bobby enjoy that Natasha got a promotion?,[],69,Yes,,3,2,Female,English,Firefox,Windows,864,1536,6.182716666666667,
1604,condition1,surprise,Connor fell from a tree,stim,,0.02,7230,5,M,Mark,Is Shirley surprised that Connor fell from a tree?,[],69,Yes,,3,2,Female,English,Firefox,Windows,864,1536,6.182716666666667,
1604,condition1,murmur,Emilia looked after the kids,stim,,0.01,12917,6,F,Donna,Did Ben murmur that Emilia looked after the kids?,[],69,Yes,,3,2,Female,English,Firefox,Windows,864,1536,6.182716666666667,
1604,condition1,compute,Valerie booked the venue,stim,,0.02,8304,7,F,Jessica,Did Manuel compute that Valerie booked the venue?,[],69,Yes,,3,2,Female,English,Firefox,Windows,864,1536,6.182716666666667,
1604,condition1,shout,Sophia got a tattoo,stim,,0.04,9320,8,F,Elizabeth,Did Brian shout that Sophia got a tattoo?,[],69,Yes,,3,2,Female,English,Firefox,Windows,864,1536,6.182716666666667,
1604,condition1,,Mary's aunt is sick,control,,0.97,10034,9,F,Karen,Is Mary's aunt sick?,[],69,Yes,,3,2,Female,English,Firefox,Windows,864,1536,6.182716666666667,
1604,condition1,celebrate,Danny ate the last cupcake,stim,,0.01,5759,10,F,Michelle,Did Catherine celebrate that Danny ate the last cupcake?,[],69,Yes,,3,2,Female,English,Firefox,Windows,864,1536,6.182716666666667,
1604,condition1,excite,Danielle painted her room,stim,,0.01,6935,11,M,Robert,Is Andrew excited that Danielle painted her room?,[],69,Yes,,3,2,Female,English,Firefox,Windows,864,1536,6.182716666666667,
1604,condition1,fantasize,Jason made a cake,stim,,0.01,7631,12,F,Margaret,Did Nicole fantasize that Jason made a cake?,[],69,Yes,,3,2,Female,English,Firefox,Windows,864,1536,6.182716666666667,
1604,condition1,,Zack is coming to the meeting tomorrow,control,,0.97,6190,13,M,Christopher,Is Zack coming to the meeting tomorrow?,[],69,Yes,,3,2,Female,English,Firefox,Windows,864,1536,6.182716666666667,
1604,condition1,offend,Isabella ate a steak on Sunday,stim,,0.01,5808,14,F,Nancy,Is Kevin offended that Isabella ate a steak on Sunday?,[],69,Yes,,3,2,Female,English,Firefox,Windows,864,1536,6.182716666666667,
1604,condition1,verify,Josie went on vacation to France,stim,,0.14,10966,15,M,George,Did Eli verify that Josie went on vacation to France?,[],69,Yes,,3,2,Female,English,Firefox,Windows,864,1536,6.182716666666667,
1604,condition1,think,Mary planted a tree,stim,,0.02,4647,16,F,Linda,Did Alan think that Mary planted a tree?,[],69,Yes,,3,2,Female,English,Firefox,Windows,864,1536,6.182716666666667,
1604,condition1,shock,Olivia left her job,stim,,0.02,5271,17,F,Ashley,Is Francisco shocked that Olivia left her job?,[],69,Yes,,3,2,Female,English,Firefox,Windows,864,1536,6.182716666666667,
1604,condition1,envision,Owen shoveled snow last winter,stim,,0.04,12214,18,F,Dorothy,Did Amanda envision that Owen shoveled snow last winter?,[],69,Yes,,3,2,Female,English,Firefox,Windows,864,1536,6.182716666666667,
1604,condition1,love,Mia drank 2 cocktails last night,stim,,0.02,20398,19,M,Logan,Did Justin love that Mia drank 2 cocktails last night?,[],69,Yes,,3,2,Female,English,Firefox,Windows,864,1536,6.182716666666667,
1604,condition1,cringe,Josh learned to ride a bike yesterday,stim,,0.02,6174,20,F,Betty,Did Stephanie cringe that Josh learned to ride a bike yesterday?,[],69,Yes,,3,2,Female,English,Firefox,Windows,864,1536,6.182716666666667,
1604,condition1,torture,Jayden rented a car,stim,,0.03,4694,21,M,William,Is Cynthia tortured that Jayden rented a car?,[],69,Yes,,3,2,Female,English,Firefox,Windows,864,1536,6.182716666666667,
1604,condition1,weep,Emma studied on Saturday morning,stim,,0.03,14038,22,F,Lisa,Did Colby weep that Emma studied on Saturday morning?,[],69,Yes,,3,2,Female,English,Firefox,Windows,864,1536,6.182716666666667,
1604,condition1,,Hendrick's car was expensive,control,,0.98,9047,23,M,Kenneth,Was Hendrick's car expensive?,[],69,Yes,,3,2,Female,English,Firefox,Windows,864,1536,6.182716666666667,
1604,condition1,resent,Charley spilled the wine,stim,,0.02,5367,24,F,Kimberly,Did Kaitlin resent that Charley spilled the wine?,[],69,Yes,,3,2,Female,English,Firefox,Windows,864,1536,6.182716666666667,
1604,condition1,,Todd played football in high school,control,,0.97,9312,25,F,Helen,Did Todd play football in high school?,[],69,Yes,,3,2,Female,English,Firefox,Windows,864,1536,6.182716666666667,
1604,condition1,write,Jon went out for dinner,stim,,0.05,4662,26,F,Jennifer,Did Regina write that Jon went out for dinner?,[],69,Yes,,3,2,Female,English,Firefox,Windows,864,1536,6.182716666666667,
1604,condition1,express,Zoe calculated the tip,stim,,0.02,16230,27,F,Sarah,Did Jerry express that Zoe calculated the tip?,[],69,Yes,,3,2,Female,English,Firefox,Windows,864,1536,6.182716666666667,
1604,condition1,dictate,Molly attended a conference last week,stim,,0.02,8766,28,F,Susan,Did Ray dictate that Molly attended a conference last week?,[],69,Yes,,3,2,Female,English,Firefox,Windows,864,1536,6.182716666666667,
1604,condition1,embarrass,Cole celebrated his friend's birthday,stim,,0.02,11942,29,M,Richard,Is Melissa embarrassed that Cole celebrated his friend's birthday?,[],69,Yes,,3,2,Female,English,Firefox,Windows,864,1536,6.182716666666667,
1604,condition1,,Madison had a baby,control,,0.96,5861,30,F,Carol,Did Madison have a baby?,[],69,Yes,,3,2,Female,English,Firefox,Windows,864,1536,6.182716666666667,
1604,condition1,argue,Allen went to the museum,stim,,0.04,5249,31,M,Steven,Did Laura argue that Allen went to the museum?,[],69,Yes,,3,2,Female,English,Firefox,Windows,864,1536,6.182716666666667,
1604,condition1,anticipate,Jackson ran 10 miles,stim,,0.04,8357,32,M,David,Did Anna anticipate that Jackson ran 10 miles?,[],69,Yes,,3,2,Female,English,Firefox,Windows,864,1536,6.182716666666667,
1604,condition1,squeal,Tony had a drink last night,stim,,0.02,4368,33,M,Paul,Did Ruth squeal that Tony had a drink last night?,[],69,Yes,,3,2,Female,English,Firefox,Windows,864,1536,6.182716666666667,
1604,condition1,,Vanessa is good at math,control,,0.97,9039,34,M,Thomas,Is Vanessa good at math?,[],69,Yes,,3,2,Female,English,Firefox,Windows,864,1536,6.182716666666667,
1604,condition1,pain,Frank got a cat,stim,,0.02,6503,35,M,James,Is Sharon pained that Frank got a cat?,[],69,Yes,,3,2,Female,English,Firefox,Windows,864,1536,6.182716666666667,
1733,condition1,,,,Mary,Mary,0,1,,,bot_check,[],29,Yes,"None, thank you!",3,2,Female,English,Chrome,Windows,720,1280,10.0311,
1733,condition1,aggravate,Julian cleaned his room,stim,,0.09,10067,3,M,Kenneth,Is Shirley aggravated that Julian cleaned his room?,[],29,Yes,"None, thank you!",3,2,Female,English,Chrome,Windows,720,1280,10.0311,
1733,condition1,embarrass,Danny ate the last cupcake,stim,,0.08,11139,4,F,Linda,Is Regina embarrassed that Danny ate the last cupcake?,[],29,Yes,"None, thank you!",3,2,Female,English,Chrome,Windows,720,1280,10.0311,
1733,condition1,whine,Lucas bought new shoes,stim,,0.08,7870,5,M,James,Did Kathleen whine that Lucas bought new shoes?,[],29,Yes,"None, thank you!",3,2,Female,English,Chrome,Windows,720,1280,10.0311,
1733,condition1,surprise,Mia drank 2 cocktails last night,stim,,0.08,7252,6,F,Jessica,Is Alan surprised that Mia drank 2 cocktails last night?,[],29,Yes,"None, thank you!",3,2,Female,English,Chrome,Windows,720,1280,10.0311,
1733,condition1,argue,Jayden rented a car,stim,,0.2,9614,7,M,William,Did Rebecca argue that Jayden rented a car?,[],29,Yes,"None, thank you!",3,2,Female,English,Chrome,Windows,720,1280,10.0311,
1733,condition1,,Mary's aunt is sick,control,,0.97,7847,8,F,Dorothy,Is Mary's aunt sick?,[],29,Yes,"None, thank you!",3,2,Female,English,Chrome,Windows,720,1280,10.0311,
1733,condition1,squeal,Tony had a drink last night,stim,,0,134457,9,M,George,Did Cynthia squeal that Tony had a drink last night?,[],29,Yes,"None, thank you!",3,2,Female,English,Chrome,Windows,720,1280,10.0311,
1733,condition1,insult,Courtney woke up early yesterday,stim,,0.02,8140,10,M,Paul,Is Justin insulted that Courtney woke up early yesterday?,[],29,Yes,"None, thank you!",3,2,Female,English,Chrome,Windows,720,1280,10.0311,
1733,condition1,shout,Owen shoveled snow last winter,stim,,0.06,6191,11,F,Donna,Did Nicole shout that Owen shoveled snow last winter?,[],29,Yes,"None, thank you!",3,2,Female,English,Chrome,Windows,720,1280,10.0311,
1733,condition1,shock,Mary planted a tree,stim,,0.05,4455,12,M,Logan,Is Jerry shocked that Mary planted a tree?,[],29,Yes,"None, thank you!",3,2,Female,English,Chrome,Windows,720,1280,10.0311,
1733,condition1,pray,Olivia left her job,stim,,0,5322,13,M,David,Did Eli pray that Olivia left her job?,[],29,Yes,"None, thank you!",3,2,Female,English,Chrome,Windows,720,1280,10.0311,
1733,condition1,,Madison had a baby,control,,0.95,6511,14,M,Matthew,Did Madison have a baby?,[],29,Yes,"None, thank you!",3,2,Female,English,Chrome,Windows,720,1280,10.0311,
1733,condition1,,Todd played football in high school,control,,0.97,6720,15,F,Jennifer,Did Todd play football in high school?,[],29,Yes,"None, thank you!",3,2,Female,English,Chrome,Windows,720,1280,10.0311,
1733,condition1,write,Grace visited her sister,stim,,0.44,9524,16,F,Margaret,Did Ben write that Grace visited her sister?,[],29,Yes,"None, thank you!",3,2,Female,English,Chrome,Windows,720,1280,10.0311,
1733,condition1,,Hendrick's car was expensive,control,,0.97,6912,17,F,Sandra,Was Hendrick's car expensive?,[],29,Yes,"None, thank you!",3,2,Female,English,Chrome,Windows,720,1280,10.0311,
1733,condition1,celebrate,Jason made a cake,stim,,0.21,6119,18,F,Elizabeth,Did Laura celebrate that Jason made a cake?,[],29,Yes,"None, thank you!",3,2,Female,English,Chrome,Windows,720,1280,10.0311,
1733,condition1,anticipate,Hannah called her parents,stim,,0.26,10572,19,F,Carol,Did Brian anticipate that Hannah called her parents?,[],29,Yes,"None, thank you!",3,2,Female,English,Chrome,Windows,720,1280,10.0311,
1733,condition1,dictate,Emilia looked after the kids,stim,,0.2,7562,20,F,Karen,Did Francisco dictate that Emilia looked after the kids?,[],29,Yes,"None, thank you!",3,2,Female,English,Chrome,Windows,720,1280,10.0311,
1733,condition1,compute,Valerie booked the venue,stim,,0.23,17600,21,F,Sarah,Did Manuel compute that Valerie booked the venue?,[],29,Yes,"None, thank you!",3,2,Female,English,Chrome,Windows,720,1280,10.0311,
1733,condition1,,Zack is coming to the meeting tomorrow,control,,0.96,5204,22,F,Michelle,Is Zack coming to the meeting tomorrow?,[],29,Yes,"None, thank you!",3,2,Female,English,Chrome,Windows,720,1280,10.0311,
1733,condition1,cringe,Fred missed the train,stim,,0.22,4419,23,F,Lisa,Did Kaitlin cringe that Fred missed the train?,[],29,Yes,"None, thank you!",3,2,Female,English,Chrome,Windows,720,1280,10.0311,
1733,condition1,charm,Jackson ran 10 miles,stim,,0.06,7405,24,F,Helen,Is Stephanie charmed that Jackson ran 10 miles?,[],29,Yes,"None, thank you!",3,2,Female,English,Chrome,Windows,720,1280,10.0311,
1733,condition1,elaborate,Zoe calculated the tip,stim,,0.2,7510,25,M,Christopher,Did Tim elaborate that Zoe calculated the tip?,[],29,Yes,"None, thank you!",3,2,Female,English,Chrome,Windows,720,1280,10.0311,
1733,condition1,simulate,Cole celebrated his friend's birthday,stim,,0.17,8655,26,F,Kimberly,Did Brenda simulate that Cole celebrated his friend's birthday?,[],29,Yes,"None, thank you!",3,2,Female,English,Chrome,Windows,720,1280,10.0311,
1733,condition1,trouble,Sophia got a tattoo,stim,,0.11,5527,27,F,Susan,Is Ray troubled that Sophia got a tattoo?,[],29,Yes,"None, thank you!",3,2,Female,English,Chrome,Windows,720,1280,10.0311,
1733,condition1,tweet,Emily bought a car yesterday,stim,,0.07,10169,28,M,Steven,Did Andrew tweet that Emily bought a car yesterday?,[],29,Yes,"None, thank you!",3,2,Female,English,Chrome,Windows,720,1280,10.0311,
1733,condition1,distress,Jon went out for dinner,stim,,0.1,5751,29,F,Ashley,Is Amanda distressed that Jon went out for dinner?,[],29,Yes,"None, thank you!",3,2,Female,English,Chrome,Windows,720,1280,10.0311,
1733,condition1,thrill,Josie went on vacation to France,stim,,0.12,11227,30,M,Richard,Is Colby thrilled that Josie went on vacation to France?,[],29,Yes,"None, thank you!",3,2,Female,English,Chrome,Windows,720,1280,10.0311,
1733,condition1,feel,Josh learned to ride a bike yesterday,stim,,0.09,54798,31,M,Robert,Did Catherine feel that Josh learned to ride a bike yesterday?,[],29,Yes,"None, thank you!",3,2,Female,English,Chrome,Windows,720,1280,10.0311,
1733,condition1,,Vanessa is good at math,control,,0.99,41291,32,F,Nancy,Is Vanessa good at math?,[],29,Yes,"None, thank you!",3,2,Female,English,Chrome,Windows,720,1280,10.0311,
1733,condition1,fantasize,Frank got a cat,stim,,0,20482,33,F,Betty,Did Sharon fantasize that Frank got a cat?,[],29,Yes,"None, thank you!",3,2,Female,English,Chrome,Windows,720,1280,10.0311,
1733,condition1,express,Molly attended a conference last week,stim,,0.53,9977,34,M,Mark,Did Dennis express that Molly attended a conference last week?,[],29,Yes,"None, thank you!",3,2,Female,English,Chrome,Windows,720,1280,10.0311,
1733,condition1,gossip,Danielle painted her room,stim,,0.11,53564,35,M,Thomas,Did Noah gossip that Danielle painted her room?,[],29,Yes,"None, thank you!",3,2,Female,English,Chrome,Windows,720,1280,10.0311,
1745,condition1,,,,Susan,Susan,0,1,,,bot_check,[],19,Yes,,1,1,Female,English,Chrome,Windows,864,1536,5.43005,
1745,condition1,insult,Molly attended a conference last week,stim,,0.01,10138,3,F,Jessica,Is Manuel insulted that Molly attended a conference last week?,[],19,Yes,,1,1,Female,English,Chrome,Windows,864,1536,5.43005,
1745,condition1,excite,Fred missed the train,stim,,0,5704,4,F,Michelle,Is Kathleen excited that Fred missed the train?,[],19,Yes,,1,1,Female,English,Chrome,Windows,864,1536,5.43005,
1745,condition1,trouble,Mary planted a tree,stim,,0.03,4596,5,F,Susan,Is Noah troubled that Mary planted a tree?,[],19,Yes,,1,1,Female,English,Chrome,Windows,864,1536,5.43005,
1745,condition1,ignore,Owen shoveled snow last winter,stim,,0,14991,6,F,Sarah,Did Stephanie ignore that Owen shoveled snow last winter?,[],19,Yes,,1,1,Female,English,Chrome,Windows,864,1536,5.43005,
1745,condition1,disgust,Isabella ate a steak on Sunday,stim,,0,8868,7,F,Linda,Is Brian disgusted that Isabella ate a steak on Sunday?,[],19,Yes,,1,1,Female,English,Chrome,Windows,864,1536,5.43005,
1745,condition1,,Vanessa is good at math,control,,0.97,4436,8,M,Christopher,Is Vanessa good at math?,[],19,Yes,,1,1,Female,English,Chrome,Windows,864,1536,5.43005,
1745,condition1,,Madison had a baby,control,,0.98,7485,9,F,Jennifer,Did Madison have a baby?,[],19,Yes,,1,1,Female,English,Chrome,Windows,864,1536,5.43005,
1745,condition1,love,Zoe calculated the tip,stim,,0.02,8700,10,F,Ashley,Did Jerry love that Zoe calculated the tip?,[],19,Yes,,1,1,Female,English,Chrome,Windows,864,1536,5.43005,
1745,condition1,thrill,Olivia left her job,stim,,0,3997,11,F,Sandra,Is Francisco thrilled that Olivia left her job?,[],19,Yes,,1,1,Female,English,Chrome,Windows,864,1536,5.43005,
1745,condition1,fantasize,Danny ate the last cupcake,stim,,0.01,4762,12,F,Nancy,Did Ruth fantasize that Danny ate the last cupcake?,[],19,Yes,,1,1,Female,English,Chrome,Windows,864,1536,5.43005,
1745,condition1,argue,Grace visited her sister,stim,,0.01,7979,13,M,Mark,Did Ben argue that Grace visited her sister?,[],19,Yes,,1,1,Female,English,Chrome,Windows,864,1536,5.43005,
1745,condition1,irritate,Tony had a drink last night,stim,,0.01,3852,14,F,Kimberly,Is Kaitlin irritated that Tony had a drink last night?,[],19,Yes,,1,1,Female,English,Chrome,Windows,864,1536,5.43005,
1745,condition1,feel,Jason made a cake,stim,,0.01,6864,15,M,Kenneth,Did Melissa feel that Jason made a cake?,[],19,Yes,,1,1,Female,English,Chrome,Windows,864,1536,5.43005,
1745,condition1,bet,Emily bought a car yesterday,stim,,0,6288,16,F,Helen,Did Patrick bet that Emily bought a car yesterday?,[],19,Yes,,1,1,Female,English,Chrome,Windows,864,1536,5.43005,
1745,condition1,anticipate,Emma studied on Saturday morning,stim,,0.03,90759,17,F,Elizabeth,Did Dennis anticipate that Emma studied on Saturday morning?,[],19,Yes,,1,1,Female,English,Chrome,Windows,864,1536,5.43005,
1745,condition1,aggravate,Julian cleaned his room,stim,,0.02,3862,18,M,Matthew,Is Amy aggravated that Julian cleaned his room?,[],19,Yes,,1,1,Female,English,Chrome,Windows,864,1536,5.43005,
1745,condition1,,Todd played football in high school,control,,0.95,5967,19,F,Dorothy,Did Todd play football in high school?,[],19,Yes,,1,1,Female,English,Chrome,Windows,864,1536,5.43005,
1745,condition1,simulate,Natasha got a promotion,stim,,0,4068,20,M,Robert,Did Justin simulate that Natasha got a promotion?,[],19,Yes,,1,1,Female,English,Chrome,Windows,864,1536,5.43005,
1745,condition1,envision,Mia drank 2 cocktails last night,stim,,0,5542,21,M,Thomas,Did Kevin envision that Mia drank 2 cocktails last night?,[],19,Yes,,1,1,Female,English,Chrome,Windows,864,1536,5.43005,
1745,condition1,expose,Courtney woke up early yesterday,stim,,0,3761,22,M,David,Did Andrew expose that Courtney woke up early yesterday?,[],19,Yes,,1,1,Female,English,Chrome,Windows,864,1536,5.43005,
1745,condition1,,Zack is coming to the meeting tomorrow,control,,1,4071,23,F,Margaret,Is Zack coming to the meeting tomorrow?,[],19,Yes,,1,1,Female,English,Chrome,Windows,864,1536,5.43005,
1745,condition1,murmur,Connor fell from a tree,stim,,0.01,16038,24,M,Steven,Did Amanda murmur that Connor fell from a tree?,[],19,Yes,,1,1,Female,English,Chrome,Windows,864,1536,5.43005,
1745,condition1,dictate,Hannah called her parents,stim,,0,20225,25,M,James,Did Tim dictate that Hannah called her parents?,[],19,Yes,,1,1,Female,English,Chrome,Windows,864,1536,5.43005,
1745,condition1,,Hendrick's car was expensive,control,,0.98,3773,26,F,Lisa,Was Hendrick's car expensive?,[],19,Yes,,1,1,Female,English,Chrome,Windows,864,1536,5.43005,
1745,condition1,alarm,Danielle painted her room,stim,,0,5947,27,F,Karen,Is Colby alarmed that Danielle painted her room?,[],19,Yes,,1,1,Female,English,Chrome,Windows,864,1536,5.43005,
1745,condition1,,Mary's aunt is sick,control,,0.98,4326,28,F,Donna,Is Mary's aunt sick?,[],19,Yes,,1,1,Female,English,Chrome,Windows,864,1536,5.43005,
1745,condition1,tweet,Dylan argued with his parents,stim,,0.01,4790,29,M,Richard,Did Anna tweet that Dylan argued with his parents?,[],19,Yes,,1,1,Female,English,Chrome,Windows,864,1536,5.43005,
1745,condition1,surprise,Cole celebrated his friend's birthday,stim,,0.02,3260,30,F,Carol,Is Laura surprised that Cole celebrated his friend's birthday?,[],19,Yes,,1,1,Female,English,Chrome,Windows,864,1536,5.43005,
1745,condition1,express,Charley spilled the wine,stim,,0.02,4101,31,M,Paul,Did Shirley express that Charley spilled the wine?,[],19,Yes,,1,1,Female,English,Chrome,Windows,864,1536,5.43005,
1745,condition1,weep,Josh learned to ride a bike yesterday,stim,,0.02,3614,32,F,Betty,Did Regina weep that Josh learned to ride a bike yesterday?,[],19,Yes,,1,1,Female,English,Chrome,Windows,864,1536,5.43005,
1745,condition1,pray,Jackson ran 10 miles,stim,,0.01,2767,33,M,Logan,Did Sharon pray that Jackson ran 10 miles?,[],19,Yes,,1,1,Female,English,Chrome,Windows,864,1536,5.43005,
1745,condition1,enjoy,Josie went on vacation to France,stim,,0.01,3181,34,M,William,Did Scott enjoy that Josie went on vacation to France?,[],19,Yes,,1,1,Female,English,Chrome,Windows,864,1536,5.43005,
1745,condition1,distress,Audrey went to a party,stim,,0.01,4169,35,M,George,Is Ray distressed that Audrey went to a party?,[],19,Yes,,1,1,Female,English,Chrome,Windows,864,1536,5.43005,
1606,condition1,,,,Jennifer,Jennifer,0,1,,,bot_check,[],33,Yes,Thankyou!,2,2,Female,English,Chrome,Linux,869,412,5.395933333333334,
1606,condition1,tweet,Tony had a drink last night,stim,,0.32,14605,3,M,Thomas,Did Kaitlin tweet that Tony had a drink last night?,[],33,Yes,Thankyou!,2,2,Female,English,Chrome,Linux,869,412,5.395933333333334,
1606,condition1,,Todd played football in high school,control,,0.99,6826,4,M,Richard,Did Todd play football in high school?,[],33,Yes,Thankyou!,2,2,Female,English,Chrome,Linux,869,412,5.395933333333334,
1606,condition1,promise,Allen went to the museum,stim,,0.2,7516,5,F,Margaret,Is Anna promised that Allen went to the museum?,[],33,Yes,Thankyou!,2,2,Female,English,Chrome,Linux,869,412,5.395933333333334,
1606,condition1,thrill,Jackson ran 10 miles,stim,,0.03,7295,6,F,Michelle,Is Cynthia thrilled that Jackson ran 10 miles?,[],33,Yes,Thankyou!,2,2,Female,English,Chrome,Linux,869,412,5.395933333333334,
1606,condition1,ignore,Isabella ate a steak on Sunday,stim,,0.17,11944,7,F,Donna,Did Andrew ignore that Isabella ate a steak on Sunday?,[],33,Yes,Thankyou!,2,2,Female,English,Chrome,Linux,869,412,5.395933333333334,
1606,condition1,aggravate,Frank got a cat,stim,,0.05,6471,8,F,Susan,Is Shirley aggravated that Frank got a cat?,[],33,Yes,Thankyou!,2,2,Female,English,Chrome,Linux,869,412,5.395933333333334,
1606,condition1,irritate,Mia drank 2 cocktails last night,stim,,0.16,7140,9,F,Karen,Is Patrick irritated that Mia drank 2 cocktails last night?,[],33,Yes,Thankyou!,2,2,Female,English,Chrome,Linux,869,412,5.395933333333334,
1606,condition1,,Vanessa is good at math,control,,0.99,5868,10,F,Carol,Is Vanessa good at math?,[],33,Yes,Thankyou!,2,2,Female,English,Chrome,Linux,869,412,5.395933333333334,
1606,condition1,simulate,Olivia left her job,stim,,0.34,6930,11,F,Sandra,Did Colby simulate that Olivia left her job?,[],33,Yes,Thankyou!,2,2,Female,English,Chrome,Linux,869,412,5.395933333333334,
1606,condition1,compute,Mary planted a tree,stim,,0.37,10494,12,F,Elizabeth,Did Tim compute that Mary planted a tree?,[],33,Yes,Thankyou!,2,2,Female,English,Chrome,Linux,869,412,5.395933333333334,
1606,condition1,pray,Natasha got a promotion,stim,,0.1,6179,13,F,Jennifer,Did Dennis pray that Natasha got a promotion?,[],33,Yes,Thankyou!,2,2,Female,English,Chrome,Linux,869,412,5.395933333333334,
1606,condition1,testify,Julian cleaned his room,stim,,0.23,6931,14,M,Matthew,Did Stephanie testify that Julian cleaned his room?,[],33,Yes,Thankyou!,2,2,Female,English,Chrome,Linux,869,412,5.395933333333334,
1606,condition1,express,Sophia got a tattoo,stim,,0.19,9130,15,M,Mark,Did Manuel express that Sophia got a tattoo?,[],33,Yes,Thankyou!,2,2,Female,English,Chrome,Linux,869,412,5.395933333333334,
1606,condition1,offend,Danielle painted her room,stim,,0.09,4831,16,M,Kenneth,Is Ray offended that Danielle painted her room?,[],33,Yes,Thankyou!,2,2,Female,English,Chrome,Linux,869,412,5.395933333333334,
1606,condition1,argue,Lucas bought new shoes,stim,,0.09,10929,17,M,Logan,Did Sharon argue that Lucas bought new shoes?,[],33,Yes,Thankyou!,2,2,Female,English,Chrome,Linux,869,412,5.395933333333334,
1606,condition1,celebrate,Valerie booked the venue,stim,,0.11,7465,18,M,David,Did Justin celebrate that Valerie booked the venue?,[],33,Yes,Thankyou!,2,2,Female,English,Chrome,Linux,869,412,5.395933333333334,
1606,condition1,bet,Charley spilled the wine,stim,,0.02,6383,19,M,James,Did Nicole bet that Charley spilled the wine?,[],33,Yes,Thankyou!,2,2,Female,English,Chrome,Linux,869,412,5.395933333333334,
1606,condition1,weep,Grace visited her sister,stim,,0.16,7817,20,F,Linda,Did Kevin weep that Grace visited her sister?,[],33,Yes,Thankyou!,2,2,Female,English,Chrome,Linux,869,412,5.395933333333334,
1606,condition1,surprise,Fred missed the train,stim,,0.04,8067,21,F,Jessica,Is Melissa surprised that Fred missed the train?,[],33,Yes,Thankyou!,2,2,Female,English,Chrome,Linux,869,412,5.395933333333334,
1606,condition1,torture,Connor fell from a tree,stim,,0.05,7205,22,M,George,Is Laura tortured that Connor fell from a tree?,[],33,Yes,Thankyou!,2,2,Female,English,Chrome,Linux,869,412,5.395933333333334,
1606,condition1,,Zack is coming to the meeting tomorrow,control,,0.99,5736,23,F,Ashley,Is Zack coming to the meeting tomorrow?,[],33,Yes,Thankyou!,2,2,Female,English,Chrome,Linux,869,412,5.395933333333334,
1606,condition1,think,Jason made a cake,stim,,0.12,6121,24,F,Nancy,Did Heather think that Jason made a cake?,[],33,Yes,Thankyou!,2,2,Female,English,Chrome,Linux,869,412,5.395933333333334,
1606,condition1,amuse,Jayden rented a car,stim,,0.04,7677,25,F,Dorothy,Is Kathleen amused that Jayden rented a car?,[],33,Yes,Thankyou!,2,2,Female,English,Chrome,Linux,869,412,5.395933333333334,
1606,condition1,,Mary's aunt is sick,control,,0.95,5713,26,F,Helen,Is Mary's aunt sick?,[],33,Yes,Thankyou!,2,2,Female,English,Chrome,Linux,869,412,5.395933333333334,
1606,condition1,love,Courtney woke up early yesterday,stim,,0.02,5129,27,M,William,Did Noah love that Courtney woke up early yesterday?,[],33,Yes,Thankyou!,2,2,Female,English,Chrome,Linux,869,412,5.395933333333334,
1606,condition1,enjoy,Emily bought a car yesterday,stim,,0.03,4338,28,F,Kimberly,Did Jerry enjoy that Emily bought a car yesterday?,[],33,Yes,Thankyou!,2,2,Female,English,Chrome,Linux,869,412,5.395933333333334,
1606,condition1,distress,Zoe calculated the tip,stim,,0.01,5712,29,F,Sarah,Is Francisco distressed that Zoe calculated the tip?,[],33,Yes,Thankyou!,2,2,Female,English,Chrome,Linux,869,412,5.395933333333334,
1606,condition1,shout,Dylan argued with his parents,stim,,0.04,5927,30,M,Paul,Did Catherine shout that Dylan argued with his parents?,[],33,Yes,Thankyou!,2,2,Female,English,Chrome,Linux,869,412,5.395933333333334,
1606,condition1,expose,Audrey went to a party,stim,,0.04,8035,31,M,Robert,Did Eli expose that Audrey went to a party?,[],33,Yes,Thankyou!,2,2,Female,English,Chrome,Linux,869,412,5.395933333333334,
1606,condition1,trouble,Owen shoveled snow last winter,stim,,0.01,7964,32,F,Betty,Is Rebecca troubled that Owen shoveled snow last winter?,[],33,Yes,Thankyou!,2,2,Female,English,Chrome,Linux,869,412,5.395933333333334,
1606,condition1,,Hendrick's car was expensive,control,,0.98,3902,33,M,Christopher,Was Hendrick's car expensive?,[],33,Yes,Thankyou!,2,2,Female,English,Chrome,Linux,869,412,5.395933333333334,
1606,condition1,dictate,Molly attended a conference last week,stim,,0.13,7855,34,M,Steven,Did Scott dictate that Molly attended a conference last week?,[],33,Yes,Thankyou!,2,2,Female,English,Chrome,Linux,869,412,5.395933333333334,
1606,condition1,,Madison had a baby,control,,0.98,2913,35,F,Lisa,Did Madison have a baby?,[],33,Yes,Thankyou!,2,2,Female,English,Chrome,Linux,869,412,5.395933333333334,
1704,condition1,,,,Elizabeth,Elizabeth ,0,1,,,bot_check,[],27,No,,3,1,Male,English,Chrome,Mac,1050,1680,2.9628833333333335,
1704,condition1,,,,Elizabeth,Elizabeth ,0,1,,,bot_check,[],27,No,,3,1,Male,English,Chrome,Mac,1050,1680,2.9628833333333335,
1704,condition1,,,,Elizabeth,Elizabeth,0,1,,,bot_check,[],27,No,,3,1,Male,English,Chrome,Mac,1050,1680,2.9628833333333335,
1704,condition1,surprise,Jackson ran 10 miles,stim,,0.99,10067,3,F,Nancy,Is Amanda surprised that Jackson ran 10 miles?,[],27,No,,3,1,Male,English,Chrome,Mac,1050,1680,2.9628833333333335,
1704,condition1,,Zack is coming to the meeting tomorrow,control,,1,3639,4,F,Sarah,Is Zack coming to the meeting tomorrow?,[],27,No,,3,1,Male,English,Chrome,Mac,1050,1680,2.9628833333333335,
1704,condition1,bet,Josh learned to ride a bike yesterday,stim,,0,4463,5,M,Logan,Did Catherine bet that Josh learned to ride a bike yesterday?,[],27,No,,3,1,Male,English,Chrome,Mac,1050,1680,2.9628833333333335,
1704,condition1,,Hendrick's car was expensive,control,,1,3152,6,F,Susan,Was Hendrick's car expensive?,[],27,No,,3,1,Male,English,Chrome,Mac,1050,1680,2.9628833333333335,
1704,condition1,amuse,Molly attended a conference last week,stim,,1,5063,7,F,Elizabeth,Is Bobby amused that Molly attended a conference last week?,[],27,No,,3,1,Male,English,Chrome,Mac,1050,1680,2.9628833333333335,
1704,condition1,disgust,Audrey went to a party,stim,,0,3437,8,M,Paul,Is Patrick disgusted that Audrey went to a party?,[],27,No,,3,1,Male,English,Chrome,Mac,1050,1680,2.9628833333333335,
1704,condition1,argue,Emilia looked after the kids,stim,,0,4528,9,F,Michelle,Did Justin argue that Emilia looked after the kids?,[],27,No,,3,1,Male,English,Chrome,Mac,1050,1680,2.9628833333333335,
1704,condition1,celebrate,Danielle painted her room,stim,,1,4520,10,F,Ashley,Did Alan celebrate that Danielle painted her room?,[],27,No,,3,1,Male,English,Chrome,Mac,1050,1680,2.9628833333333335,
1704,condition1,joke,Emma studied on Saturday morning,stim,,0,12624,11,F,Kimberly,Did Jerry joke that Emma studied on Saturday morning?,[],27,No,,3,1,Male,English,Chrome,Mac,1050,1680,2.9628833333333335,
1704,condition1,expose,Lucas bought new shoes,stim,,0,3824,12,M,Richard,Did Laura expose that Lucas bought new shoes?,[],27,No,,3,1,Male,English,Chrome,Mac,1050,1680,2.9628833333333335,
1704,condition1,fantasize,Charley spilled the wine,stim,,1,5240,13,M,William,Did Melissa fantasize that Charley spilled the wine?,[],27,No,,3,1,Male,English,Chrome,Mac,1050,1680,2.9628833333333335,
1704,condition1,compute,Owen shoveled snow last winter,stim,,1,3962,14,M,James,Did Amy compute that Owen shoveled snow last winter?,[],27,No,,3,1,Male,English,Chrome,Mac,1050,1680,2.9628833333333335,
1704,condition1,,Mary's aunt is sick,control,,1,2466,15,F,Helen,Is Mary's aunt sick?,[],27,No,,3,1,Male,English,Chrome,Mac,1050,1680,2.9628833333333335,
1704,condition1,pain,Hannah called her parents,stim,,0,2822,16,F,Betty,Is Noah pained that Hannah called her parents?,[],27,No,,3,1,Male,English,Chrome,Mac,1050,1680,2.9628833333333335,
1704,condition1,,Todd played football in high school,control,,1,2385,17,F,Donna,Did Todd play football in high school?,[],27,No,,3,1,Male,English,Chrome,Mac,1050,1680,2.9628833333333335,
1704,condition1,tweet,Grace visited her sister,stim,,0,2878,18,F,Jessica,Did Eli tweet that Grace visited her sister?,[],27,No,,3,1,Male,English,Chrome,Mac,1050,1680,2.9628833333333335,
1704,condition1,pray,Emily bought a car yesterday,stim,,0,6666,19,M,Steven,Did Scott pray that Emily bought a car yesterday?,[],27,No,,3,1,Male,English,Chrome,Mac,1050,1680,2.9628833333333335,
1704,condition1,resent,Frank got a cat,stim,,0.01,4147,20,F,Linda,Did Cynthia resent that Frank got a cat?,[],27,No,,3,1,Male,English,Chrome,Mac,1050,1680,2.9628833333333335,
1704,condition1,insult,Olivia left her job,stim,,0,2894,21,F,Margaret,Is Andrew insulted that Olivia left her job?,[],27,No,,3,1,Male,English,Chrome,Mac,1050,1680,2.9628833333333335,
1704,condition1,envision,Natasha got a promotion,stim,,0,3549,22,M,Christopher,Did Ray envision that Natasha got a promotion?,[],27,No,,3,1,Male,English,Chrome,Mac,1050,1680,2.9628833333333335,
1704,condition1,suppose,Dylan argued with his parents,stim,,0,3412,23,F,Karen,Did Anna suppose that Dylan argued with his parents?,[],27,No,,3,1,Male,English,Chrome,Mac,1050,1680,2.9628833333333335,
1704,condition1,,Madison had a baby,control,,1,1763,24,M,Matthew,Did Madison have a baby?,[],27,No,,3,1,Male,English,Chrome,Mac,1050,1680,2.9628833333333335,
1704,condition1,irritate,Allen went to the museum,stim,,0,3268,25,M,Robert,Is Nicole irritated that Allen went to the museum?,[],27,No,,3,1,Male,English,Chrome,Mac,1050,1680,2.9628833333333335,
1704,condition1,squeal,Isabella ate a steak on Sunday,stim,,0.03,1843,26,F,Lisa,Did Ben squeal that Isabella ate a steak on Sunday?,[],27,No,,3,1,Male,English,Chrome,Mac,1050,1680,2.9628833333333335,
1704,condition1,trouble,Tony had a drink last night,stim,,0,4187,27,F,Sandra,Is Shirley troubled that Tony had a drink last night?,[],27,No,,3,1,Male,English,Chrome,Mac,1050,1680,2.9628833333333335,
1704,condition1,require,Courtney woke up early yesterday,stim,,1,3687,28,M,Mark,Did Brian require that Courtney woke up early yesterday?,[],27,No,,3,1,Male,English,Chrome,Mac,1050,1680,2.9628833333333335,
1704,condition1,testify,Connor fell from a tree,stim,,1,3994,29,F,Jennifer,Did Regina testify that Connor fell from a tree?,[],27,No,,3,1,Male,English,Chrome,Mac,1050,1680,2.9628833333333335,
1704,condition1,whine,Zoe calculated the tip,stim,,1,1820,30,M,George,Did Manuel whine that Zoe calculated the tip?,[],27,No,,3,1,Male,English,Chrome,Mac,1050,1680,2.9628833333333335,
1704,condition1,ignore,Julian cleaned his room,stim,,0,1842,31,M,Thomas,Did Brenda ignore that Julian cleaned his room?,[],27,No,,3,1,Male,English,Chrome,Mac,1050,1680,2.9628833333333335,
1704,condition1,feel,Danny ate the last cupcake,stim,,0.01,2108,32,M,David,Did Stephanie feel that Danny ate the last cupcake?,[],27,No,,3,1,Male,English,Chrome,Mac,1050,1680,2.9628833333333335,
1704,condition1,love,Sophia got a tattoo,stim,,0,2604,33,F,Dorothy,Did Kevin love that Sophia got a tattoo?,[],27,No,,3,1,Male,English,Chrome,Mac,1050,1680,2.9628833333333335,
1704,condition1,,Vanessa is good at math,control,,1,2821,34,F,Carol,Is Vanessa good at math?,[],27,No,,3,1,Male,English,Chrome,Mac,1050,1680,2.9628833333333335,
1704,condition1,shout,Valerie booked the venue,stim,,0.02,2708,35,M,Kenneth,Did Francisco shout that Valerie booked the venue?,[],27,No,,3,1,Male,English,Chrome,Mac,1050,1680,2.9628833333333335,
1683,condition1,,,,Susan,Susan,0,1,,,bot_check,[],18,Yes,,1,2,Female,english,Chrome,Windows,720,1280,3.4739166666666668,
1683,condition1,embarrass,Jackson ran 10 miles,stim,,0.11,12790,3,M,Logan,Is Catherine embarrassed that Jackson ran 10 miles?,[],18,Yes,,1,2,Female,english,Chrome,Windows,720,1280,3.4739166666666668,
1683,condition1,compute,Josh learned to ride a bike yesterday,stim,,0.09,8474,4,M,Richard,Did Amy compute that Josh learned to ride a bike yesterday?,[],18,Yes,,1,2,Female,english,Chrome,Windows,720,1280,3.4739166666666668,
1683,condition1,retract,Olivia left her job,stim,,0.12,3733,5,F,Betty,Did Brian retract that Olivia left her job?,[],18,Yes,,1,2,Female,english,Chrome,Windows,720,1280,3.4739166666666668,
1683,condition1,charm,Sophia got a tattoo,stim,,0.06,3317,6,F,Michelle,Is Ray charmed that Sophia got a tattoo?,[],18,Yes,,1,2,Female,english,Chrome,Windows,720,1280,3.4739166666666668,
1683,condition1,expose,Frank got a cat,stim,,0.06,3227,7,M,David,Did Ruth expose that Frank got a cat?,[],18,Yes,,1,2,Female,english,Chrome,Windows,720,1280,3.4739166666666668,
1683,condition1,pain,Fred missed the train,stim,,0.09,4550,8,M,Mark,Is Anna pained that Fred missed the train?,[],18,Yes,,1,2,Female,english,Chrome,Windows,720,1280,3.4739166666666668,
1683,condition1,irritate,Zoe calculated the tip,stim,,0.13,4538,9,M,Thomas,Is Colby irritated that Zoe calculated the tip?,[],18,Yes,,1,2,Female,english,Chrome,Windows,720,1280,3.4739166666666668,
1683,condition1,,Vanessa is good at math,control,,0.95,6842,10,M,Paul,Is Vanessa good at math?,[],18,Yes,,1,2,Female,english,Chrome,Windows,720,1280,3.4739166666666668,
1683,condition1,verify,Mia drank 2 cocktails last night,stim,,0.13,6353,11,M,George,Did Alan verify that Mia drank 2 cocktails last night?,[],18,Yes,,1,2,Female,english,Chrome,Windows,720,1280,3.4739166666666668,
1683,condition1,joke,Allen went to the museum,stim,,0.33,4518,12,M,Kenneth,Did Laura joke that Allen went to the museum?,[],18,Yes,,1,2,Female,english,Chrome,Windows,720,1280,3.4739166666666668,
1683,condition1,testify,Natasha got a promotion,stim,,0.2,3624,13,M,Matthew,Did Scott testify that Natasha got a promotion?,[],18,Yes,,1,2,Female,english,Chrome,Windows,720,1280,3.4739166666666668,
1683,condition1,envision,Connor fell from a tree,stim,,0.16,4916,14,F,Susan,Did Heather envision that Connor fell from a tree?,[],18,Yes,,1,2,Female,english,Chrome,Windows,720,1280,3.4739166666666668,
1683,condition1,write,Molly attended a conference last week,stim,,0.21,6340,15,F,Jennifer,Did Noah write that Molly attended a conference last week?,[],18,Yes,,1,2,Female,english,Chrome,Windows,720,1280,3.4739166666666668,
1683,condition1,gossip,Danny ate the last cupcake,stim,,0.15,2655,16,F,Ashley,Did Rebecca gossip that Danny ate the last cupcake?,[],18,Yes,,1,2,Female,english,Chrome,Windows,720,1280,3.4739166666666668,
1683,condition1,,Zack is coming to the meeting tomorrow,control,,0.95,3398,17,M,Robert,Is Zack coming to the meeting tomorrow?,[],18,Yes,,1,2,Female,english,Chrome,Windows,720,1280,3.4739166666666668,
1683,condition1,,Todd played football in high school,control,,0.96,7695,18,M,James,Did Todd play football in high school?,[],18,Yes,,1,2,Female,english,Chrome,Windows,720,1280,3.4739166666666668,
1683,condition1,dictate,Emily bought a car yesterday,stim,,0.25,4260,19,M,William,Did Manuel dictate that Emily bought a car yesterday?,[],18,Yes,,1,2,Female,english,Chrome,Windows,720,1280,3.4739166666666668,
1683,condition1,shout,Louis went swimming,stim,,0.25,3553,20,F,Nancy,Did Regina shout that Louis went swimming?,[],18,Yes,,1,2,Female,english,Chrome,Windows,720,1280,3.4739166666666668,
1683,condition1,,Madison had a baby,control,,0.91,6108,21,F,Jessica,Did Madison have a baby?,[],18,Yes,,1,2,Female,english,Chrome,Windows,720,1280,3.4739166666666668,
1683,condition1,squeal,Dylan argued with his parents,stim,,0.14,4571,22,F,Donna,Did Stephanie squeal that Dylan argued with his parents?,[],18,Yes,,1,2,Female,english,Chrome,Windows,720,1280,3.4739166666666668,
1683,condition1,ignore,Hannah called her parents,stim,,0.16,3767,23,F,Kimberly,Did Eli ignore that Hannah called her parents?,[],18,Yes,,1,2,Female,english,Chrome,Windows,720,1280,3.4739166666666668,
1683,condition1,enjoy,Jayden rented a car,stim,,0.18,2814,24,F,Helen,Did Shirley enjoy that Jayden rented a car?,[],18,Yes,,1,2,Female,english,Chrome,Windows,720,1280,3.4739166666666668,
1683,condition1,simulate,Josie went on vacation to France,stim,,0.18,3027,25,F,Margaret,Did Bobby simulate that Josie went on vacation to France?,[],18,Yes,,1,2,Female,english,Chrome,Windows,720,1280,3.4739166666666668,
1683,condition1,love,Isabella ate a steak on Sunday,stim,,0.08,3258,26,F,Karen,Did Andrew love that Isabella ate a steak on Sunday?,[],18,Yes,,1,2,Female,english,Chrome,Windows,720,1280,3.4739166666666668,
1683,condition1,,Hendrick's car was expensive,control,,0.99,2996,27,F,Sarah,Was Hendrick's car expensive?,[],18,Yes,,1,2,Female,english,Chrome,Windows,720,1280,3.4739166666666668,
1683,condition1,promise,Julian cleaned his room,stim,,0.19,2733,28,M,Christopher,Is Kathleen promised that Julian cleaned his room?,[],18,Yes,,1,2,Female,english,Chrome,Windows,720,1280,3.4739166666666668,
1683,condition1,distress,Grace visited her sister,stim,,0.11,5287,29,F,Sandra,Is Tim distressed that Grace visited her sister?,[],18,Yes,,1,2,Female,english,Chrome,Windows,720,1280,3.4739166666666668,
1683,condition1,insult,Courtney woke up early yesterday,stim,,0.13,3260,30,F,Elizabeth,Is Patrick insulted that Courtney woke up early yesterday?,[],18,Yes,,1,2,Female,english,Chrome,Windows,720,1280,3.4739166666666668,
1683,condition1,scream,Mary planted a tree,stim,,0.11,3034,31,F,Linda,Did Jerry scream that Mary planted a tree?,[],18,Yes,,1,2,Female,english,Chrome,Windows,720,1280,3.4739166666666668,
1683,condition1,surprise,Emilia looked after the kids,stim,,0.11,3169,32,F,Lisa,Is Justin surprised that Emilia looked after the kids?,[],18,Yes,,1,2,Female,english,Chrome,Windows,720,1280,3.4739166666666668,
1683,condition1,disgust,Lucas bought new shoes,stim,,0.07,4192,33,M,Steven,Is Amanda disgusted that Lucas bought new shoes?,[],18,Yes,,1,2,Female,english,Chrome,Windows,720,1280,3.4739166666666668,
1683,condition1,celebrate,Jason made a cake,stim,,0.1,3751,34,F,Carol,Did Melissa celebrate that Jason made a cake?,[],18,Yes,,1,2,Female,english,Chrome,Windows,720,1280,3.4739166666666668,
1683,condition1,,Mary's aunt is sick,control,,0.96,3034,35,F,Dorothy,Is Mary's aunt sick?,[],18,Yes,,1,2,Female,english,Chrome,Windows,720,1280,3.4739166666666668,
1717,condition1,,,,Patricia,Patricia,0,1,,,bot_check,[],35,Yes,,3,1,Female,English,Chrome,Linux,768,1366,5.6558,
1717,condition1,facinate,Fred missed the train,stim,,0,21155,3,F,Kimberly,Is Rebecca fascinated that Fred missed the train?,[],35,Yes,,3,1,Female,English,Chrome,Linux,768,1366,5.6558,
1717,condition1,promise,Lucas bought new shoes,stim,,0.01,17936,4,M,Mark,Is Brenda promised that Lucas bought new shoes?,[],35,Yes,,3,1,Female,English,Chrome,Linux,768,1366,5.6558,
1717,condition1,cringe,Jackson ran 10 miles,stim,,0.04,8922,5,F,Michelle,Did Nicole cringe that Jackson ran 10 miles?,[],35,Yes,,3,1,Female,English,Chrome,Linux,768,1366,5.6558,
1717,condition1,require,Audrey went to a party,stim,,0.95,8099,6,F,Helen,Did Dennis require that Audrey went to a party?,[],35,Yes,,3,1,Female,English,Chrome,Linux,768,1366,5.6558,
1717,condition1,,Madison had a baby,control,,0.98,4076,7,F,Susan,Did Madison have a baby?,[],35,Yes,,3,1,Female,English,Chrome,Linux,768,1366,5.6558,
1717,condition1,distress,Jayden rented a car,stim,,0.97,5962,8,M,David,Is Shirley distressed that Jayden rented a car?,[],35,Yes,,3,1,Female,English,Chrome,Linux,768,1366,5.6558,
1717,condition1,ignore,Sophia got a tattoo,stim,,0.04,9352,9,M,George,Did Colby ignore that Sophia got a tattoo?,[],35,Yes,,3,1,Female,English,Chrome,Linux,768,1366,5.6558,
1717,condition1,thrill,Dylan argued with his parents,stim,,0.07,9597,10,F,Carol,Is Cynthia thrilled that Dylan argued with his parents?,[],35,Yes,,3,1,Female,English,Chrome,Linux,768,1366,5.6558,
1717,condition1,expose,Julian cleaned his room,stim,,0.03,11307,11,M,James,Did Heather expose that Julian cleaned his room?,[],35,Yes,,3,1,Female,English,Chrome,Linux,768,1366,5.6558,
1717,condition1,,Hendrick's car was expensive,control,,0.99,4262,12,M,Christopher,Was Hendrick's car expensive?,[],35,Yes,,3,1,Female,English,Chrome,Linux,768,1366,5.6558,
1717,condition1,joke,Molly attended a conference last week,stim,,0.03,10070,13,F,Jessica,Did Noah joke that Molly attended a conference last week?,[],35,Yes,,3,1,Female,English,Chrome,Linux,768,1366,5.6558,
1717,condition1,,Mary's aunt is sick,control,,0.99,3666,14,M,Richard,Is Mary's aunt sick?,[],35,Yes,,3,1,Female,English,Chrome,Linux,768,1366,5.6558,
1717,condition1,write,Cole celebrated his friend's birthday,stim,,0.03,13254,15,F,Donna,Did Amy write that Cole celebrated his friend's birthday?,[],35,Yes,,3,1,Female,English,Chrome,Linux,768,1366,5.6558,
1717,condition1,shock,Danielle painted her room,stim,,0.03,12926,16,M,Matthew,Is Ben shocked that Danielle painted her room?,[],35,Yes,,3,1,Female,English,Chrome,Linux,768,1366,5.6558,
1717,condition1,resent,Danny ate the last cupcake,stim,,0.06,5279,17,F,Ashley,Did Anna resent that Danny ate the last cupcake?,[],35,Yes,,3,1,Female,English,Chrome,Linux,768,1366,5.6558,
1717,condition1,squeal,Courtney woke up early yesterday,stim,,0.01,7668,18,M,William,Did Tim squeal that Courtney woke up early yesterday?,[],35,Yes,,3,1,Female,English,Chrome,Linux,768,1366,5.6558,
1717,condition1,,Zack is coming to the meeting tomorrow,control,,0.99,3498,19,M,Thomas,Is Zack coming to the meeting tomorrow?,[],35,Yes,,3,1,Female,English,Chrome,Linux,768,1366,5.6558,
1717,condition1,,Todd played football in high school,control,,0.99,5531,20,F,Sandra,Did Todd play football in high school?,[],35,Yes,,3,1,Female,English,Chrome,Linux,768,1366,5.6558,
1717,condition1,pray,Josie went on vacation to France,stim,,0.01,5826,21,M,Robert,Did Justin pray that Josie went on vacation to France?,[],35,Yes,,3,1,Female,English,Chrome,Linux,768,1366,5.6558,
1717,condition1,disgust,Owen shoveled snow last winter,stim,,0.02,6868,22,F,Jennifer,Is Stephanie disgusted that Owen shoveled snow last winter?,[],35,Yes,,3,1,Female,English,Chrome,Linux,768,1366,5.6558,
1717,condition1,express,Jon went out for dinner,stim,,0.01,7172,23,M,Logan,Did Kaitlin express that Jon went out for dinner?,[],35,Yes,,3,1,Female,English,Chrome,Linux,768,1366,5.6558,
1717,condition1,amuse,Tony had a drink last night,stim,,0.02,7533,24,F,Elizabeth,Is Amanda amused that Tony had a drink last night?,[],35,Yes,,3,1,Female,English,Chrome,Linux,768,1366,5.6558,
1717,condition1,love,Emilia looked after the kids,stim,,0.02,6602,25,F,Lisa,Did Kevin love that Emilia looked after the kids?,[],35,Yes,,3,1,Female,English,Chrome,Linux,768,1366,5.6558,
1717,condition1,elaborate,Frank got a cat,stim,,0.02,8723,26,M,Steven,Did Melissa elaborate that Frank got a cat?,[],35,Yes,,3,1,Female,English,Chrome,Linux,768,1366,5.6558,
1717,condition1,anticipate,Connor fell from a tree,stim,,0,6223,27,F,Nancy,Did Laura anticipate that Connor fell from a tree?,[],35,Yes,,3,1,Female,English,Chrome,Linux,768,1366,5.6558,
1717,condition1,,Vanessa is good at math,control,,0.97,2696,28,F,Karen,Is Vanessa good at math?,[],35,Yes,,3,1,Female,English,Chrome,Linux,768,1366,5.6558,
1717,condition1,dictate,Emily bought a car yesterday,stim,,0.76,12122,29,M,Paul,Did Scott dictate that Emily bought a car yesterday?,[],35,Yes,,3,1,Female,English,Chrome,Linux,768,1366,5.6558,
1717,condition1,suppose,Allen went to the museum,stim,,0.14,7429,30,F,Betty,Did Ruth suppose that Allen went to the museum?,[],35,Yes,,3,1,Female,English,Chrome,Linux,768,1366,5.6558,
1717,condition1,aggravate,Zoe calculated the tip,stim,,0.03,8849,31,F,Linda,Is Ray aggravated that Zoe calculated the tip?,[],35,Yes,,3,1,Female,English,Chrome,Linux,768,1366,5.6558,
1717,condition1,trouble,Valerie booked the venue,stim,,0.12,8563,32,M,Kenneth,Is Eli troubled that Valerie booked the venue?,[],35,Yes,,3,1,Female,English,Chrome,Linux,768,1366,5.6558,
1717,condition1,torture,Natasha got a promotion,stim,,0.03,6021,33,F,Margaret,Is Jerry tortured that Natasha got a promotion?,[],35,Yes,,3,1,Female,English,Chrome,Linux,768,1366,5.6558,
1717,condition1,scream,Jason made a cake,stim,,0.1,5905,34,F,Dorothy,Did Catherine scream that Jason made a cake?,[],35,Yes,,3,1,Female,English,Chrome,Linux,768,1366,5.6558,
1717,condition1,tweet,Mia drank 2 cocktails last night,stim,,0.03,8379,35,F,Sarah,Did Andrew tweet that Mia drank 2 cocktails last night?,[],35,Yes,,3,1,Female,English,Chrome,Linux,768,1366,5.6558,
1644,condition1,,,,Mary,Mary,0,1,,,bot_check,[],24,Yes,Would be interesting to throw in answers that referred to the other person in the statements.,3,2,Male,English,Chrome,Mac,1080,1920,7.226916666666667,
1644,condition1,trouble,Fred missed the train,stim,,0,12527,3,F,Karen,Is Brenda troubled that Fred missed the train?,[],24,Yes,Would be interesting to throw in answers that referred to the other person in the statements.,3,2,Male,English,Chrome,Mac,1080,1920,7.226916666666667,
1644,condition1,,Todd played football in high school,control,,1,9332,4,M,William,Did Todd play football in high school?,[],24,Yes,Would be interesting to throw in answers that referred to the other person in the statements.,3,2,Male,English,Chrome,Mac,1080,1920,7.226916666666667,
1644,condition1,joke,Jackson ran 10 miles,stim,,0,4774,5,F,Sarah,Did Anna joke that Jackson ran 10 miles?,[],24,Yes,Would be interesting to throw in answers that referred to the other person in the statements.,3,2,Male,English,Chrome,Mac,1080,1920,7.226916666666667,
1644,condition1,shout,Allen went to the museum,stim,,0,7251,6,F,Susan,Did Stephanie shout that Allen went to the museum?,[],24,Yes,Would be interesting to throw in answers that referred to the other person in the statements.,3,2,Male,English,Chrome,Mac,1080,1920,7.226916666666667,
1644,condition1,feel,Jayden rented a car,stim,,0,150049,7,M,Logan,Did Amanda feel that Jayden rented a car?,[],24,Yes,Would be interesting to throw in answers that referred to the other person in the statements.,3,2,Male,English,Chrome,Mac,1080,1920,7.226916666666667,
1644,condition1,irritate,Courtney woke up early yesterday,stim,,0,5725,8,M,Matthew,Is Francisco irritated that Courtney woke up early yesterday?,[],24,Yes,Would be interesting to throw in answers that referred to the other person in the statements.,3,2,Male,English,Chrome,Mac,1080,1920,7.226916666666667,
1644,condition1,suppose,Cole celebrated his friend's birthday,stim,,0,5802,9,M,Robert,Did Kaitlin suppose that Cole celebrated his friend's birthday?,[],24,Yes,Would be interesting to throw in answers that referred to the other person in the statements.,3,2,Male,English,Chrome,Mac,1080,1920,7.226916666666667,
1644,condition1,enjoy,Mia drank 2 cocktails last night,stim,,0,4430,10,F,Ashley,Did Eli enjoy that Mia drank 2 cocktails last night?,[],24,Yes,Would be interesting to throw in answers that referred to the other person in the statements.,3,2,Male,English,Chrome,Mac,1080,1920,7.226916666666667,
1644,condition1,pain,Dylan argued with his parents,stim,,0,5721,11,M,Mark,Is Ruth pained that Dylan argued with his parents?,[],24,Yes,Would be interesting to throw in answers that referred to the other person in the statements.,3,2,Male,English,Chrome,Mac,1080,1920,7.226916666666667,
1644,condition1,,Madison had a baby,control,,1,3078,12,M,David,Did Madison have a baby?,[],24,Yes,Would be interesting to throw in answers that referred to the other person in the statements.,3,2,Male,English,Chrome,Mac,1080,1920,7.226916666666667,
1644,condition1,verify,Jon went out for dinner,stim,,0,7087,13,F,Donna,Did Amy verify that Jon went out for dinner?,[],24,Yes,Would be interesting to throw in answers that referred to the other person in the statements.,3,2,Male,English,Chrome,Mac,1080,1920,7.226916666666667,
1644,condition1,,Vanessa is good at math,control,,1,2755,14,M,Thomas,Is Vanessa good at math?,[],24,Yes,Would be interesting to throw in answers that referred to the other person in the statements.,3,2,Male,English,Chrome,Mac,1080,1920,7.226916666666667,
1644,condition1,squeal,Owen shoveled snow last winter,stim,,0,4141,15,F,Margaret,Did Laura squeal that Owen shoveled snow last winter?,[],24,Yes,Would be interesting to throw in answers that referred to the other person in the statements.,3,2,Male,English,Chrome,Mac,1080,1920,7.226916666666667,
1644,condition1,resent,Valerie booked the venue,stim,,0,13083,16,M,Kenneth,Did Tim resent that Valerie booked the venue?,[],24,Yes,Would be interesting to throw in answers that referred to the other person in the statements.,3,2,Male,English,Chrome,Mac,1080,1920,7.226916666666667,
1644,condition1,simulate,Danny ate the last cupcake,stim,,0,4406,17,M,Christopher,Did Sharon simulate that Danny ate the last cupcake?,[],24,Yes,Would be interesting to throw in answers that referred to the other person in the statements.,3,2,Male,English,Chrome,Mac,1080,1920,7.226916666666667,
1644,condition1,alarm,Charley spilled the wine,stim,,0,3678,18,F,Elizabeth,Is Rebecca alarmed that Charley spilled the wine?,[],24,Yes,Would be interesting to throw in answers that referred to the other person in the statements.,3,2,Male,English,Chrome,Mac,1080,1920,7.226916666666667,
1644,condition1,celebrate,Audrey went to a party,stim,,0,2669,19,M,George,Did Bobby celebrate that Audrey went to a party?,[],24,Yes,Would be interesting to throw in answers that referred to the other person in the statements.,3,2,Male,English,Chrome,Mac,1080,1920,7.226916666666667,
1644,condition1,excite,Julian cleaned his room,stim,,0,6140,20,F,Lisa,Is Catherine excited that Julian cleaned his room?,[],24,Yes,Would be interesting to throw in answers that referred to the other person in the statements.,3,2,Male,English,Chrome,Mac,1080,1920,7.226916666666667,
1644,condition1,whine,Lucas bought new shoes,stim,,0,3025,21,F,Betty,Did Heather whine that Lucas bought new shoes?,[],24,Yes,Would be interesting to throw in answers that referred to the other person in the statements.,3,2,Male,English,Chrome,Mac,1080,1920,7.226916666666667,
1644,condition1,promise,Olivia left her job,stim,,0,4054,22,F,Helen,Is Patrick promised that Olivia left her job?,[],24,Yes,Would be interesting to throw in answers that referred to the other person in the statements.,3,2,Male,English,Chrome,Mac,1080,1920,7.226916666666667,
1644,condition1,murmur,Frank got a cat,stim,,0,4801,23,F,Linda,Did Regina murmur that Frank got a cat?,[],24,Yes,Would be interesting to throw in answers that referred to the other person in the statements.,3,2,Male,English,Chrome,Mac,1080,1920,7.226916666666667,
1644,condition1,envision,Emma studied on Saturday morning,stim,,0,5662,24,M,Steven,Did Kevin envision that Emma studied on Saturday morning?,[],24,Yes,Would be interesting to throw in answers that referred to the other person in the statements.,3,2,Male,English,Chrome,Mac,1080,1920,7.226916666666667,
1644,condition1,offend,Emily bought a car yesterday,stim,,0,5096,25,M,Paul,Is Manuel offended that Emily bought a car yesterday?,[],24,Yes,Would be interesting to throw in answers that referred to the other person in the statements.,3,2,Male,English,Chrome,Mac,1080,1920,7.226916666666667,
1644,condition1,charm,Josh learned to ride a bike yesterday,stim,,0,4925,26,F,Jessica,Is Nicole charmed that Josh learned to ride a bike yesterday?,[],24,Yes,Would be interesting to throw in answers that referred to the other person in the statements.,3,2,Male,English,Chrome,Mac,1080,1920,7.226916666666667,
1644,condition1,compute,Jason made a cake,stim,,0,3579,27,F,Kimberly,Did Cynthia compute that Jason made a cake?,[],24,Yes,Would be interesting to throw in answers that referred to the other person in the statements.,3,2,Male,English,Chrome,Mac,1080,1920,7.226916666666667,
1644,condition1,,Hendrick's car was expensive,control,,1,6498,28,F,Michelle,Was Hendrick's car expensive?,[],24,Yes,Would be interesting to throw in answers that referred to the other person in the statements.,3,2,Male,English,Chrome,Mac,1080,1920,7.226916666666667,
1644,condition1,,Mary's aunt is sick,control,,1,2709,29,M,James,Is Mary's aunt sick?,[],24,Yes,Would be interesting to throw in answers that referred to the other person in the statements.,3,2,Male,English,Chrome,Mac,1080,1920,7.226916666666667,
1644,condition1,aggravate,Hannah called her parents,stim,,0,2906,30,F,Dorothy,Is Ben aggravated that Hannah called her parents?,[],24,Yes,Would be interesting to throw in answers that referred to the other person in the statements.,3,2,Male,English,Chrome,Mac,1080,1920,7.226916666666667,
1644,condition1,distress,Danielle painted her room,stim,,0,4070,31,F,Sandra,Is Scott distressed that Danielle painted her room?,[],24,Yes,Would be interesting to throw in answers that referred to the other person in the statements.,3,2,Male,English,Chrome,Mac,1080,1920,7.226916666666667,
1644,condition1,testify,Josie went on vacation to France,stim,,0,4262,32,M,Richard,Did Justin testify that Josie went on vacation to France?,[],24,Yes,Would be interesting to throw in answers that referred to the other person in the statements.,3,2,Male,English,Chrome,Mac,1080,1920,7.226916666666667,
1644,condition1,embarrass,Mary planted a tree,stim,,0,4200,33,F,Nancy,Is Andrew embarrassed that Mary planted a tree?,[],24,Yes,Would be interesting to throw in answers that referred to the other person in the statements.,3,2,Male,English,Chrome,Mac,1080,1920,7.226916666666667,
1644,condition1,,Zack is coming to the meeting tomorrow,control,,1,5000,34,F,Carol,Is Zack coming to the meeting tomorrow?,[],24,Yes,Would be interesting to throw in answers that referred to the other person in the statements.,3,2,Male,English,Chrome,Mac,1080,1920,7.226916666666667,
1644,condition1,elaborate,Louis went swimming,stim,,0,3665,35,F,Jennifer,Did Shirley elaborate that Louis went swimming?,[],24,Yes,Would be interesting to throw in answers that referred to the other person in the statements.,3,2,Male,English,Chrome,Mac,1080,1920,7.226916666666667,
1721,condition1,,,,Jennifer,jennifer,0,1,,,bot_check,[],56,Yes,no,3,2,Female,english,Chrome,Windows,768,1366,7.72995,
1721,condition1,retract,Cole celebrated his friend's birthday,stim,,0.51,42173,3,F,Karen,Did Kaitlin retract that Cole celebrated his friend's birthday?,[],56,Yes,no,3,2,Female,english,Chrome,Windows,768,1366,7.72995,
1721,condition1,require,Isabella ate a steak on Sunday,stim,,0.03,13154,4,M,Richard,Did Ray require that Isabella ate a steak on Sunday?,[],56,Yes,no,3,2,Female,english,Chrome,Windows,768,1366,7.72995,
1721,condition1,whine,Emily bought a car yesterday,stim,,0.01,8576,5,M,Paul,Did Andrew whine that Emily bought a car yesterday?,[],56,Yes,no,3,2,Female,english,Chrome,Windows,768,1366,7.72995,
1721,condition1,,Vanessa is good at math,control,,0.98,6402,6,F,Michelle,Is Vanessa good at math?,[],56,Yes,no,3,2,Female,english,Chrome,Windows,768,1366,7.72995,
1721,condition1,,Hendrick's car was expensive,control,,0.98,7895,7,M,William,Was Hendrick's car expensive?,[],56,Yes,no,3,2,Female,english,Chrome,Windows,768,1366,7.72995,
1721,condition1,bet,Louis went swimming,stim,,0,8052,8,F,Ashley,Did Cynthia bet that Louis went swimming?,[],56,Yes,no,3,2,Female,english,Chrome,Windows,768,1366,7.72995,
1721,condition1,love,Audrey went to a party,stim,,0,8022,9,M,Matthew,Did Eli love that Audrey went to a party?,[],56,Yes,no,3,2,Female,english,Chrome,Windows,768,1366,7.72995,
1721,condition1,celebrate,Danny ate the last cupcake,stim,,0,9973,10,F,Jennifer,Did Laura celebrate that Danny ate the last cupcake?,[],56,Yes,no,3,2,Female,english,Chrome,Windows,768,1366,7.72995,
1721,condition1,express,Sophia got a tattoo,stim,,0,9203,11,M,Robert,Did Alan express that Sophia got a tattoo?,[],56,Yes,no,3,2,Female,english,Chrome,Windows,768,1366,7.72995,
1721,condition1,torture,Mia drank 2 cocktails last night,stim,,0.01,14335,12,M,Thomas,Is Noah tortured that Mia drank 2 cocktails last night?,[],56,Yes,no,3,2,Female,english,Chrome,Windows,768,1366,7.72995,
1721,condition1,,Todd played football in high school,control,,0.99,8470,13,M,James,Did Todd play football in high school?,[],56,Yes,no,3,2,Female,english,Chrome,Windows,768,1366,7.72995,
1721,condition1,aggravate,Hannah called her parents,stim,,0.01,5523,14,M,Mark,Is Jerry aggravated that Hannah called her parents?,[],56,Yes,no,3,2,Female,english,Chrome,Windows,768,1366,7.72995,
1721,condition1,write,Josh learned to ride a bike yesterday,stim,,0.01,7492,15,F,Nancy,Did Sharon write that Josh learned to ride a bike yesterday?,[],56,Yes,no,3,2,Female,english,Chrome,Windows,768,1366,7.72995,
1721,condition1,scream,Natasha got a promotion,stim,,0.01,6362,16,M,Steven,Did Justin scream that Natasha got a promotion?,[],56,Yes,no,3,2,Female,english,Chrome,Windows,768,1366,7.72995,
1721,condition1,excite,Valerie booked the venue,stim,,0,8249,17,M,Christopher,Is Scott excited that Valerie booked the venue?,[],56,Yes,no,3,2,Female,english,Chrome,Windows,768,1366,7.72995,
1721,condition1,,Mary's aunt is sick,control,,0.99,8886,18,F,Donna,Is Mary's aunt sick?,[],56,Yes,no,3,2,Female,english,Chrome,Windows,768,1366,7.72995,
1721,condition1,resent,Courtney woke up early yesterday,stim,,0.01,7391,19,M,Kenneth,Did Francisco resent that Courtney woke up early yesterday?,[],56,Yes,no,3,2,Female,english,Chrome,Windows,768,1366,7.72995,
1721,condition1,expose,Fred missed the train,stim,,0.01,8115,20,F,Dorothy,Did Stephanie expose that Fred missed the train?,[],56,Yes,no,3,2,Female,english,Chrome,Windows,768,1366,7.72995,
1721,condition1,embarrass,Owen shoveled snow last winter,stim,,0.03,5933,21,F,Kimberly,Is Rebecca embarrassed that Owen shoveled snow last winter?,[],56,Yes,no,3,2,Female,english,Chrome,Windows,768,1366,7.72995,
1721,condition1,elaborate,Jon went out for dinner,stim,,0.02,7014,22,F,Lisa,Did Amy elaborate that Jon went out for dinner?,[],56,Yes,no,3,2,Female,english,Chrome,Windows,768,1366,7.72995,
1721,condition1,anticipate,Tony had a drink last night,stim,,0.01,5880,23,F,Margaret,Did Amanda anticipate that Tony had a drink last night?,[],56,Yes,no,3,2,Female,english,Chrome,Windows,768,1366,7.72995,
1721,condition1,distress,Olivia left her job,stim,,0.02,5555,24,F,Carol,Is Colby distressed that Olivia left her job?,[],56,Yes,no,3,2,Female,english,Chrome,Windows,768,1366,7.72995,
1721,condition1,surprise,Emma studied on Saturday morning,stim,,0.02,11099,25,F,Jessica,Is Brian surprised that Emma studied on Saturday morning?,[],56,Yes,no,3,2,Female,english,Chrome,Windows,768,1366,7.72995,
1721,condition1,,Zack is coming to the meeting tomorrow,control,,1,12763,26,M,David,Is Zack coming to the meeting tomorrow?,[],56,Yes,no,3,2,Female,english,Chrome,Windows,768,1366,7.72995,
1721,condition1,charm,Molly attended a conference last week,stim,,0.01,8137,27,M,George,Is Dennis charmed that Molly attended a conference last week?,[],56,Yes,no,3,2,Female,english,Chrome,Windows,768,1366,7.72995,
1721,condition1,shock,Lucas bought new shoes,stim,,0.01,7731,28,F,Sarah,Is Anna shocked that Lucas bought new shoes?,[],56,Yes,no,3,2,Female,english,Chrome,Windows,768,1366,7.72995,
1721,condition1,promise,Emilia looked after the kids,stim,,0,12877,29,F,Linda,Is Tim promised that Emilia looked after the kids?,[],56,Yes,no,3,2,Female,english,Chrome,Windows,768,1366,7.72995,
1721,condition1,murmur,Danielle painted her room,stim,,0.01,7843,30,F,Helen,Did Patrick murmur that Danielle painted her room?,[],56,Yes,no,3,2,Female,english,Chrome,Windows,768,1366,7.72995,
1721,condition1,,Madison had a baby,control,,0.98,6321,31,F,Betty,Did Madison have a baby?,[],56,Yes,no,3,2,Female,english,Chrome,Windows,768,1366,7.72995,
1721,condition1,offend,Connor fell from a tree,stim,,0.01,5415,32,M,Logan,Is Shirley offended that Connor fell from a tree?,[],56,Yes,no,3,2,Female,english,Chrome,Windows,768,1366,7.72995,
1721,condition1,think,Jason made a cake,stim,,0,6976,33,F,Elizabeth,Did Melissa think that Jason made a cake?,[],56,Yes,no,3,2,Female,english,Chrome,Windows,768,1366,7.72995,
1721,condition1,dictate,Mary planted a tree,stim,,0,5359,34,F,Susan,Did Manuel dictate that Mary planted a tree?,[],56,Yes,no,3,2,Female,english,Chrome,Windows,768,1366,7.72995,
1721,condition1,irritate,Frank got a cat,stim,,0.02,4845,35,F,Sandra,Is Kathleen irritated that Frank got a cat?,[],56,Yes,no,3,2,Female,english,Chrome,Windows,768,1366,7.72995,
1714,condition1,,,,Sarah,Sarah,0,1,,,bot_check,[],24,Yes,"I don't have any, sorry.",3,2,Male,Spanish/English,Firefox,Linux,920,414,7.819433333333333,
1714,condition1,,Todd played football in high school,control,,1,15923,3,F,Jennifer,Did Todd play football in high school?,[],24,Yes,"I don't have any, sorry.",3,2,Male,Spanish/English,Firefox,Linux,920,414,7.819433333333333,
1714,condition1,,Vanessa is good at math,control,,0.99,7039,4,F,Jessica,Is Vanessa good at math?,[],24,Yes,"I don't have any, sorry.",3,2,Male,Spanish/English,Firefox,Linux,920,414,7.819433333333333,
1714,condition1,simulate,Cole celebrated his friend's birthday,stim,,0,24252,5,M,Steven,Did Catherine simulate that Cole celebrated his friend's birthday?,[],24,Yes,"I don't have any, sorry.",3,2,Male,Spanish/English,Firefox,Linux,920,414,7.819433333333333,
1714,condition1,fantasize,Jason made a cake,stim,,0,9338,6,F,Lisa,Did Shirley fantasize that Jason made a cake?,[],24,Yes,"I don't have any, sorry.",3,2,Male,Spanish/English,Firefox,Linux,920,414,7.819433333333333,
1714,condition1,torture,Jayden rented a car,stim,,0,11023,7,M,David,Is Regina tortured that Jayden rented a car?,[],24,Yes,"I don't have any, sorry.",3,2,Male,Spanish/English,Firefox,Linux,920,414,7.819433333333333,
1714,condition1,alarm,Louis went swimming,stim,,0,9482,8,F,Dorothy,Is Rebecca alarmed that Louis went swimming?,[],24,Yes,"I don't have any, sorry.",3,2,Male,Spanish/English,Firefox,Linux,920,414,7.819433333333333,
1714,condition1,squeal,Danielle painted her room,stim,,0.05,10395,9,F,Linda,Did Jerry squeal that Danielle painted her room?,[],24,Yes,"I don't have any, sorry.",3,2,Male,Spanish/English,Firefox,Linux,920,414,7.819433333333333,
1714,condition1,embarrass,Emily bought a car yesterday,stim,,0,13185,10,F,Kimberly,Is Brian embarrassed that Emily bought a car yesterday?,[],24,Yes,"I don't have any, sorry.",3,2,Male,Spanish/English,Firefox,Linux,920,414,7.819433333333333,
1714,condition1,,Madison had a baby,control,,1,5881,11,M,George,Did Madison have a baby?,[],24,Yes,"I don't have any, sorry.",3,2,Male,Spanish/English,Firefox,Linux,920,414,7.819433333333333,
1714,condition1,,Mary's aunt is sick,control,,1,3944,12,M,James,Is Mary's aunt sick?,[],24,Yes,"I don't have any, sorry.",3,2,Male,Spanish/English,Firefox,Linux,920,414,7.819433333333333,
1714,condition1,amuse,Sophia got a tattoo,stim,,0.05,8558,13,M,Thomas,Is Ray amused that Sophia got a tattoo?,[],24,Yes,"I don't have any, sorry.",3,2,Male,Spanish/English,Firefox,Linux,920,414,7.819433333333333,
1714,condition1,ignore,Mia drank 2 cocktails last night,stim,,0,7384,14,M,Mark,Did Bobby ignore that Mia drank 2 cocktails last night?,[],24,Yes,"I don't have any, sorry.",3,2,Male,Spanish/English,Firefox,Linux,920,414,7.819433333333333,
1714,condition1,tweet,Mary planted a tree,stim,,0,10696,15,F,Susan,Did Justin tweet that Mary planted a tree?,[],24,Yes,"I don't have any, sorry.",3,2,Male,Spanish/English,Firefox,Linux,920,414,7.819433333333333,
1714,condition1,enjoy,Dylan argued with his parents,stim,,0,7407,16,F,Sarah,Did Brenda enjoy that Dylan argued with his parents?,[],24,Yes,"I don't have any, sorry.",3,2,Male,Spanish/English,Firefox,Linux,920,414,7.819433333333333,
1714,condition1,argue,Lucas bought new shoes,stim,,0,6119,17,M,Logan,Did Sharon argue that Lucas bought new shoes?,[],24,Yes,"I don't have any, sorry.",3,2,Male,Spanish/English,Firefox,Linux,920,414,7.819433333333333,
1714,condition1,excite,Courtney woke up early yesterday,stim,,0.05,7078,18,F,Ashley,Is Francisco excited that Courtney woke up early yesterday?,[],24,Yes,"I don't have any, sorry.",3,2,Male,Spanish/English,Firefox,Linux,920,414,7.819433333333333,
1714,condition1,scream,Olivia left her job,stim,,0,6609,19,F,Betty,Did Kevin scream that Olivia left her job?,[],24,Yes,"I don't have any, sorry.",3,2,Male,Spanish/English,Firefox,Linux,920,414,7.819433333333333,
1714,condition1,compute,Allen went to the museum,stim,,0,8623,20,F,Helen,Did Amy compute that Allen went to the museum?,[],24,Yes,"I don't have any, sorry.",3,2,Male,Spanish/English,Firefox,Linux,920,414,7.819433333333333,
1714,condition1,joke,Josie went on vacation to France,stim,,0,6445,21,M,Kenneth,Did Patrick joke that Josie went on vacation to France?,[],24,Yes,"I don't have any, sorry.",3,2,Male,Spanish/English,Firefox,Linux,920,414,7.819433333333333,
1714,condition1,think,Audrey went to a party,stim,,0.01,7957,22,M,Christopher,Did Alan think that Audrey went to a party?,[],24,Yes,"I don't have any, sorry.",3,2,Male,Spanish/English,Firefox,Linux,920,414,7.819433333333333,
1714,condition1,,Zack is coming to the meeting tomorrow,control,,1,7913,23,M,Matthew,Is Zack coming to the meeting tomorrow?,[],24,Yes,"I don't have any, sorry.",3,2,Male,Spanish/English,Firefox,Linux,920,414,7.819433333333333,
1714,condition1,surprise,Josh learned to ride a bike yesterday,stim,,0,5593,24,F,Nancy,Is Amanda surprised that Josh learned to ride a bike yesterday?,[],24,Yes,"I don't have any, sorry.",3,2,Male,Spanish/English,Firefox,Linux,920,414,7.819433333333333,
1714,condition1,pain,Fred missed the train,stim,,0,7355,25,F,Karen,Is Stephanie pained that Fred missed the train?,[],24,Yes,"I don't have any, sorry.",3,2,Male,Spanish/English,Firefox,Linux,920,414,7.819433333333333,
1714,condition1,feel,Emma studied on Saturday morning,stim,,0,26412,26,F,Carol,Did Manuel feel that Emma studied on Saturday morning?,[],24,Yes,"I don't have any, sorry.",3,2,Male,Spanish/English,Firefox,Linux,920,414,7.819433333333333,
1714,condition1,suppose,Valerie booked the venue,stim,,0,9522,27,F,Donna,Did Scott suppose that Valerie booked the venue?,[],24,Yes,"I don't have any, sorry.",3,2,Male,Spanish/English,Firefox,Linux,920,414,7.819433333333333,
1714,condition1,testify,Grace visited her sister,stim,,0.05,7603,28,M,Richard,Did Ben testify that Grace visited her sister?,[],24,Yes,"I don't have any, sorry.",3,2,Male,Spanish/English,Firefox,Linux,920,414,7.819433333333333,
1714,condition1,expose,Jon went out for dinner,stim,,0,8393,29,F,Margaret,Did Nicole expose that Jon went out for dinner?,[],24,Yes,"I don't have any, sorry.",3,2,Male,Spanish/English,Firefox,Linux,920,414,7.819433333333333,
1714,condition1,,Hendrick's car was expensive,control,,1,3831,30,F,Elizabeth,Was Hendrick's car expensive?,[],24,Yes,"I don't have any, sorry.",3,2,Male,Spanish/English,Firefox,Linux,920,414,7.819433333333333,
1714,condition1,trouble,Natasha got a promotion,stim,,0.04,6795,31,F,Sandra,Is Colby troubled that Natasha got a promotion?,[],24,Yes,"I don't have any, sorry.",3,2,Male,Spanish/English,Firefox,Linux,920,414,7.819433333333333,
1714,condition1,bet,Isabella ate a steak on Sunday,stim,,0,13155,32,F,Michelle,Did Andrew bet that Isabella ate a steak on Sunday?,[],24,Yes,"I don't have any, sorry.",3,2,Male,Spanish/English,Firefox,Linux,920,414,7.819433333333333,
1714,condition1,whine,Owen shoveled snow last winter,stim,,0,6758,33,M,William,Did Kaitlin whine that Owen shoveled snow last winter?,[],24,Yes,"I don't have any, sorry.",3,2,Male,Spanish/English,Firefox,Linux,920,414,7.819433333333333,
1714,condition1,resent,Danny ate the last cupcake,stim,,0.02,7003,34,M,Paul,Did Kathleen resent that Danny ate the last cupcake?,[],24,Yes,"I don't have any, sorry.",3,2,Male,Spanish/English,Firefox,Linux,920,414,7.819433333333333,
1714,condition1,promise,Hannah called her parents,stim,,0.01,15084,35,M,Robert,Is Tim promised that Hannah called her parents?,[],24,Yes,"I don't have any, sorry.",3,2,Male,Spanish/English,Firefox,Linux,920,414,7.819433333333333,
1741,condition1,,,,Linda,Linda,0,1,,,bot_check,[],33,Yes,,3,1,Female,English,Chrome,Linux,1024,768,4.7376,
1741,condition1,,Vanessa is good at math,control,,0.98,23736,3,F,Carol,Is Vanessa good at math?,[],33,Yes,,3,1,Female,English,Chrome,Linux,1024,768,4.7376,
1741,condition1,weep,Emily bought a car yesterday,stim,,0.07,10285,4,M,George,Did Kevin weep that Emily bought a car yesterday?,[],33,Yes,,3,1,Female,English,Chrome,Linux,1024,768,4.7376,
1741,condition1,gossip,Danny ate the last cupcake,stim,,0,8526,5,M,Thomas,Did Brenda gossip that Danny ate the last cupcake?,[],33,Yes,,3,1,Female,English,Chrome,Linux,1024,768,4.7376,
1741,condition1,shout,Jon went out for dinner,stim,,0.23,17446,6,M,Matthew,Did Heather shout that Jon went out for dinner?,[],33,Yes,,3,1,Female,English,Chrome,Linux,1024,768,4.7376,
1741,condition1,,Mary's aunt is sick,control,,0.98,5171,7,F,Jessica,Is Mary's aunt sick?,[],33,Yes,,3,1,Female,English,Chrome,Linux,1024,768,4.7376,
1741,condition1,tweet,Josie went on vacation to France,stim,,0.19,8883,8,F,Helen,Did Alan tweet that Josie went on vacation to France?,[],33,Yes,,3,1,Female,English,Chrome,Linux,1024,768,4.7376,
1741,condition1,embarrass,Danielle painted her room,stim,,0.03,6914,9,F,Donna,Is Tim embarrassed that Danielle painted her room?,[],33,Yes,,3,1,Female,English,Chrome,Linux,1024,768,4.7376,
1741,condition1,think,Jayden rented a car,stim,,0.03,6718,10,F,Sandra,Did Cynthia think that Jayden rented a car?,[],33,Yes,,3,1,Female,English,Chrome,Linux,1024,768,4.7376,
1741,condition1,,Todd played football in high school,control,,0.99,8836,11,F,Karen,Did Todd play football in high school?,[],33,Yes,,3,1,Female,English,Chrome,Linux,1024,768,4.7376,
1741,condition1,trouble,Emma studied on Saturday morning,stim,,0.01,7771,12,M,Steven,Is Ben troubled that Emma studied on Saturday morning?,[],33,Yes,,3,1,Female,English,Chrome,Linux,1024,768,4.7376,
1741,condition1,shock,Olivia left her job,stim,,0.02,4377,13,F,Lisa,Is Colby shocked that Olivia left her job?,[],33,Yes,,3,1,Female,English,Chrome,Linux,1024,768,4.7376,
1741,condition1,,Hendrick's car was expensive,control,,0.99,4476,14,M,Logan,Was Hendrick's car expensive?,[],33,Yes,,3,1,Female,English,Chrome,Linux,1024,768,4.7376,
1741,condition1,express,Hannah called her parents,stim,,0.14,11041,15,M,James,Did Brian express that Hannah called her parents?,[],33,Yes,,3,1,Female,English,Chrome,Linux,1024,768,4.7376,
1741,condition1,excite,Jackson ran 10 miles,stim,,0.02,5070,16,F,Nancy,Is Sharon excited that Jackson ran 10 miles?,[],33,Yes,,3,1,Female,English,Chrome,Linux,1024,768,4.7376,
1741,condition1,argue,Tony had a drink last night,stim,,0.04,7500,17,F,Elizabeth,Did Ruth argue that Tony had a drink last night?,[],33,Yes,,3,1,Female,English,Chrome,Linux,1024,768,4.7376,
1741,condition1,fantasize,Allen went to the museum,stim,,0.03,4949,18,F,Jennifer,Did Kaitlin fantasize that Allen went to the museum?,[],33,Yes,,3,1,Female,English,Chrome,Linux,1024,768,4.7376,
1741,condition1,torture,Audrey went to a party,stim,,0.02,11732,19,F,Ashley,Is Eli tortured that Audrey went to a party?,[],33,Yes,,3,1,Female,English,Chrome,Linux,1024,768,4.7376,
1741,condition1,pain,Valerie booked the venue,stim,,0.02,7837,20,M,Mark,Is Justin pained that Valerie booked the venue?,[],33,Yes,,3,1,Female,English,Chrome,Linux,1024,768,4.7376,
1741,condition1,testify,Dylan argued with his parents,stim,,0.14,6634,21,M,Robert,Did Anna testify that Dylan argued with his parents?,[],33,Yes,,3,1,Female,English,Chrome,Linux,1024,768,4.7376,
1741,condition1,compute,Natasha got a promotion,stim,,0.02,3544,22,F,Susan,Did Francisco compute that Natasha got a promotion?,[],33,Yes,,3,1,Female,English,Chrome,Linux,1024,768,4.7376,
1741,condition1,squeal,Lucas bought new shoes,stim,,0.01,3211,23,M,Christopher,Did Melissa squeal that Lucas bought new shoes?,[],33,Yes,,3,1,Female,English,Chrome,Linux,1024,768,4.7376,
1741,condition1,simulate,Cole celebrated his friend's birthday,stim,,0.11,7370,24,M,William,Did Amanda simulate that Cole celebrated his friend's birthday?,[],33,Yes,,3,1,Female,English,Chrome,Linux,1024,768,4.7376,
1741,condition1,elaborate,Courtney woke up early yesterday,stim,,0.05,6582,25,M,Kenneth,Did Manuel elaborate that Courtney woke up early yesterday?,[],33,Yes,,3,1,Female,English,Chrome,Linux,1024,768,4.7376,
1741,condition1,,Zack is coming to the meeting tomorrow,control,,0.97,5869,26,F,Sarah,Is Zack coming to the meeting tomorrow?,[],33,Yes,,3,1,Female,English,Chrome,Linux,1024,768,4.7376,
1741,condition1,feel,Jason made a cake,stim,,0.01,4788,27,F,Dorothy,Did Regina feel that Jason made a cake?,[],33,Yes,,3,1,Female,English,Chrome,Linux,1024,768,4.7376,
1741,condition1,,Madison had a baby,control,,0.98,2490,28,M,Paul,Did Madison have a baby?,[],33,Yes,,3,1,Female,English,Chrome,Linux,1024,768,4.7376,
1741,condition1,facinate,Zoe calculated the tip,stim,,0.03,7475,29,M,David,Is Noah fascinated that Zoe calculated the tip?,[],33,Yes,,3,1,Female,English,Chrome,Linux,1024,768,4.7376,
1741,condition1,envision,Josh learned to ride a bike yesterday,stim,,0.01,14506,30,F,Betty,Did Laura envision that Josh learned to ride a bike yesterday?,[],33,Yes,,3,1,Female,English,Chrome,Linux,1024,768,4.7376,
1741,condition1,enjoy,Frank got a cat,stim,,0.01,5993,31,F,Kimberly,Did Nicole enjoy that Frank got a cat?,[],33,Yes,,3,1,Female,English,Chrome,Linux,1024,768,4.7376,
1741,condition1,scream,Owen shoveled snow last winter,stim,,0.16,5471,32,F,Michelle,Did Rebecca scream that Owen shoveled snow last winter?,[],33,Yes,,3,1,Female,English,Chrome,Linux,1024,768,4.7376,
1741,condition1,thrill,Grace visited her sister,stim,,0.01,4022,33,F,Margaret,Is Ray thrilled that Grace visited her sister?,[],33,Yes,,3,1,Female,English,Chrome,Linux,1024,768,4.7376,
1741,condition1,distress,Sophia got a tattoo,stim,,0.03,3808,34,M,Richard,Is Andrew distressed that Sophia got a tattoo?,[],33,Yes,,3,1,Female,English,Chrome,Linux,1024,768,4.7376,
1741,condition1,murmur,Charley spilled the wine,stim,,0.18,8415,35,F,Linda,Did Kathleen murmur that Charley spilled the wine?,[],33,Yes,,3,1,Female,English,Chrome,Linux,1024,768,4.7376,
1738,condition1,,,,Barbara,Barbara,0,1,,,bot_check,[],20,Yes,The word HIT is confusing and I am taking it to mean the experiment??,2,1,Female,English,Chrome,Windows,768,1366,7.784716666666666,
1738,condition1,,Hendrick's car was expensive,control,,1,13335,3,F,Lisa,Was Hendrick's car expensive?,[],20,Yes,The word HIT is confusing and I am taking it to mean the experiment??,2,1,Female,English,Chrome,Windows,768,1366,7.784716666666666,
1738,condition1,argue,Owen shoveled snow last winter,stim,,0.19,35452,4,M,Mark,Did Heather argue that Owen shoveled snow last winter?,[],20,Yes,The word HIT is confusing and I am taking it to mean the experiment??,2,1,Female,English,Chrome,Windows,768,1366,7.784716666666666,
1738,condition1,disgust,Louis went swimming,stim,,0,8863,5,M,Steven,Is Catherine disgusted that Louis went swimming?,[],20,Yes,The word HIT is confusing and I am taking it to mean the experiment??,2,1,Female,English,Chrome,Windows,768,1366,7.784716666666666,
1738,condition1,,Todd played football in high school,control,,1,13866,6,F,Margaret,Did Todd play football in high school?,[],20,Yes,The word HIT is confusing and I am taking it to mean the experiment??,2,1,Female,English,Chrome,Windows,768,1366,7.784716666666666,
1738,condition1,,Vanessa is good at math,control,,1,6926,7,M,Richard,Is Vanessa good at math?,[],20,Yes,The word HIT is confusing and I am taking it to mean the experiment??,2,1,Female,English,Chrome,Windows,768,1366,7.784716666666666,
1738,condition1,ignore,Emma studied on Saturday morning,stim,,0,16587,8,F,Nancy,Did Francisco ignore that Emma studied on Saturday morning?,[],20,Yes,The word HIT is confusing and I am taking it to mean the experiment??,2,1,Female,English,Chrome,Windows,768,1366,7.784716666666666,
1738,condition1,express,Hannah called her parents,stim,,0.25,8901,9,F,Dorothy,Did Andrew express that Hannah called her parents?,[],20,Yes,The word HIT is confusing and I am taking it to mean the experiment??,2,1,Female,English,Chrome,Windows,768,1366,7.784716666666666,
1738,condition1,fantasize,Emilia looked after the kids,stim,,0,11823,10,M,Logan,Did Kevin fantasize that Emilia looked after the kids?,[],20,Yes,The word HIT is confusing and I am taking it to mean the experiment??,2,1,Female,English,Chrome,Windows,768,1366,7.784716666666666,
1738,condition1,murmur,Grace visited her sister,stim,,0.21,18296,11,M,Thomas,Did Bobby murmur that Grace visited her sister?,[],20,Yes,The word HIT is confusing and I am taking it to mean the experiment??,2,1,Female,English,Chrome,Windows,768,1366,7.784716666666666,
1738,condition1,,Mary's aunt is sick,control,,1,7292,12,M,William,Is Mary's aunt sick?,[],20,Yes,The word HIT is confusing and I am taking it to mean the experiment??,2,1,Female,English,Chrome,Windows,768,1366,7.784716666666666,
1738,condition1,envision,Charley spilled the wine,stim,,0,8114,13,F,Sandra,Did Rebecca envision that Charley spilled the wine?,[],20,Yes,The word HIT is confusing and I am taking it to mean the experiment??,2,1,Female,English,Chrome,Windows,768,1366,7.784716666666666,
1738,condition1,shock,Fred missed the train,stim,,0,10844,14,M,George,Is Cynthia shocked that Fred missed the train?,[],20,Yes,The word HIT is confusing and I am taking it to mean the experiment??,2,1,Female,English,Chrome,Windows,768,1366,7.784716666666666,
1738,condition1,squeal,Dylan argued with his parents,stim,,0,6707,15,F,Helen,Did Melissa squeal that Dylan argued with his parents?,[],20,Yes,The word HIT is confusing and I am taking it to mean the experiment??,2,1,Female,English,Chrome,Windows,768,1366,7.784716666666666,
1738,condition1,surprise,Courtney woke up early yesterday,stim,,0,6462,16,F,Ashley,Is Tim surprised that Courtney woke up early yesterday?,[],20,Yes,The word HIT is confusing and I am taking it to mean the experiment??,2,1,Female,English,Chrome,Windows,768,1366,7.784716666666666,
